#2theta theta omega gamma alpha beta         
3.484 1.742 0 0 1.742 180 0        
3.484 1.742 0 5 5.294 109.2364 1        
3.484 1.742 0 10 10.1491 99.9341 2        
3.484 1.742 0 15 15.0985 96.7019 3        
3.484 1.742 0 20 20.0726 95.0815 4        
3.484 1.742 0 25 25.0567 94.1161 5        
3.484 1.742 0 30 30.0458 93.4808 6        
3.484 1.742 0 35 35.0378 93.0352 7        
3.484 1.742 0 40 40.0315 92.7089 8        
3.484 1.742 0 45 45.0265 92.4628 9        
3.484 1.742 0 50 50.0222 92.2735 10        
3.484 1.742 0 55 55.0185 92.1263 11        
3.484 1.742 0 60 60.0153 92.0113 12        
3.484 1.742 0 65 65.0123 91.922 13        
3.484 1.742 0 70 70.0096 91.8537 14        
3.484 1.742 0 75 75.0071 91.8034 15        
3.484 1.742 0 80 80.0047 91.7689 16        
3.484 1.742 0 85 85.0023 91.7487 17        
3.484 1.742 0 90 90 91.742 18        
3.484 1.742 0 95 94.9977 91.7487 19        
3.484 1.742 0 100 99.9953 91.7689 20        
3.484 1.742 0 105 104.9929 91.8034 21        
3.484 1.742 0 110 109.9904 91.8537 22        
3.484 1.742 0 115 114.9877 91.922 23        
3.484 1.742 0 120 119.9847 92.0113 24        
3.484 1.742 0 125 124.9815 92.1263 25        
3.484 1.742 0 130 129.9778 92.2735 26        
3.484 1.742 0 135 134.9735 92.4628 27        
3.484 1.742 0 140 139.9685 92.7089 28        
3.484 1.742 0 145 144.9622 93.0352 29        
3.484 1.742 0 150 149.9542 93.4808 30        
3.484 1.742 0 155 154.9433 94.1161 31        
3.484 1.742 0 160 159.9274 95.0815 32        
3.484 1.742 0 165 164.9015 96.7019 33        
3.484 1.742 0 170 169.8509 99.9341 34        
3.484 1.742 0 175 174.706 109.2364 35        
3.484 1.742 0 180 178.258 -180 36        
3.484 1.742 0 185 174.706 -109.2364 37        
3.484 1.742 0 190 169.8509 -99.9341 38        
3.484 1.742 0 195 164.9015 -96.7019 39        
3.484 1.742 0 200 159.9274 -95.0815 40        
3.484 1.742 0 205 154.9433 -94.1161 41        
3.484 1.742 0 210 149.9542 -93.4808 42        
3.484 1.742 0 215 144.9622 -93.0352 43        
3.484 1.742 0 220 139.9685 -92.7089 44        
3.484 1.742 0 225 134.9735 -92.4628 45        
3.484 1.742 0 230 129.9778 -92.2735 46        
3.484 1.742 0 235 124.9815 -92.1263 47        
3.484 1.742 0 240 119.9847 -92.0113 48        
3.484 1.742 0 245 114.9877 -91.922 49        
3.484 1.742 0 250 109.9904 -91.8537 50        
3.484 1.742 0 255 104.9929 -91.8034 51        
3.484 1.742 0 260 99.9953 -91.7689 52        
3.484 1.742 0 265 94.9977 -91.7487 53        
3.484 1.742 0 270 90 -91.742 54        
3.484 1.742 0 275 85.0023 -91.7487 55        
3.484 1.742 0 280 80.0047 -91.7689 56        
3.484 1.742 0 285 75.0071 -91.8034 57        
3.484 1.742 0 290 70.0096 -91.8537 58        
3.484 1.742 0 295 65.0123 -91.922 59        
3.484 1.742 0 300 60.0153 -92.0113 60        
3.484 1.742 0 305 55.0185 -92.1263 61        
3.484 1.742 0 310 50.0222 -92.2735 62        
3.484 1.742 0 315 45.0265 -92.4628 63        
3.484 1.742 0 320 40.0315 -92.7089 64        
3.484 1.742 0 325 35.0378 -93.0352 65        
3.484 1.742 0 330 30.0458 -93.4808 66        
3.484 1.742 0 335 25.0567 -94.1161 67        
3.484 1.742 0 340 20.0726 -95.0815 68        
3.484 1.742 0 345 15.0985 -96.7019 69        
3.484 1.742 0 350 10.1491 -99.9341 70        
3.484 1.742 0 355 5.294 -109.2364 71        
              
3.484 1.742 5 0 3.258 0 72        
3.484 1.742 5 5 5.96 57.0337 73        
3.484 1.742 5 10 10.4996 72.2652 74        
3.484 1.742 5 15 15.3222 78.2385 75        
3.484 1.742 5 20 20.2264 81.4202 76        
3.484 1.742 5 25 25.1644 83.4276 77        
3.484 1.742 5 30 30.1195 84.8366 78        
3.484 1.742 5 35 35.0843 85.9018 79        
3.484 1.742 5 40 40.0551 86.7529 80        
3.484 1.742 5 45 45.0297 87.4629 81        
3.484 1.742 5 50 50.0069 88.0766 82        
3.484 1.742 5 55 54.9858 88.6228 83        
3.484 1.742 5 60 59.9658 89.1214 84        
3.484 1.742 5 65 64.9465 89.5868 85        
3.484 1.742 5 70 69.9274 90.0298 86        
3.484 1.742 5 75 74.9083 90.4591 87        
3.484 1.742 5 80 79.8889 90.8821 88        
3.484 1.742 5 85 84.869 91.3054 89        
3.484 1.742 5 90 89.8482 91.7354 90        
3.484 1.742 5 95 94.8263 92.1784 91        
3.484 1.742 5 100 99.8028 92.6413 92        
3.484 1.742 5 105 104.7775 93.1321 93        
3.484 1.742 5 110 109.7497 93.6599 94        
3.484 1.742 5 115 114.7189 94.2362 95        
3.484 1.742 5 120 119.6841 94.8757 96        
3.484 1.742 5 125 124.6443 95.5979 97        
3.484 1.742 5 130 129.5979 96.4291 98        
3.484 1.742 5 135 134.5427 97.4071 99        
3.484 1.742 5 140 139.4754 98.5869 100        
3.484 1.742 5 145 144.3909 100.0537 101        
3.484 1.742 5 150 149.2809 101.945 102        
3.484 1.742 5 155 154.1308 104.4988 103        
3.484 1.742 5 160 158.9129 108.1616 104        
3.484 1.742 5 165 163.568 113.8612 105        
3.484 1.742 5 170 167.9477 123.773 106        
3.484 1.742 5 175 171.6092 143.3453 107        
3.484 1.742 5 180 173.258 -180 108        
3.484 1.742 5 185 171.6092 -143.3453 109        
3.484 1.742 5 190 167.9477 -123.773 110        
3.484 1.742 5 195 163.568 -113.8612 111        
3.484 1.742 5 200 158.9129 -108.1616 112        
3.484 1.742 5 205 154.1308 -104.4988 113        
3.484 1.742 5 210 149.2809 -101.945 114        
3.484 1.742 5 215 144.3909 -100.0537 115        
3.484 1.742 5 220 139.4754 -98.5869 116        
3.484 1.742 5 225 134.5427 -97.4071 117        
3.484 1.742 5 230 129.5979 -96.4291 118        
3.484 1.742 5 235 124.6443 -95.5979 119        
3.484 1.742 5 240 119.6841 -94.8757 120        
3.484 1.742 5 245 114.7189 -94.2362 121        
3.484 1.742 5 250 109.7497 -93.6599 122        
3.484 1.742 5 255 104.7775 -93.1321 123        
3.484 1.742 5 260 99.8028 -92.6413 124        
3.484 1.742 5 265 94.8263 -92.1784 125        
3.484 1.742 5 270 89.8482 -91.7354 126        
3.484 1.742 5 275 84.869 -91.3054 127        
3.484 1.742 5 280 79.8889 -90.8821 128        
3.484 1.742 5 285 74.9083 -90.4591 129        
3.484 1.742 5 290 69.9274 -90.0298 130        
3.484 1.742 5 295 64.9465 -89.5868 131        
3.484 1.742 5 300 59.9658 -89.1214 132        
3.484 1.742 5 305 54.9858 -88.6228 133        
3.484 1.742 5 310 50.0069 -88.0766 134        
3.484 1.742 5 315 45.0297 -87.4629 135        
3.484 1.742 5 320 40.0551 -86.7529 136        
3.484 1.742 5 325 35.0843 -85.9018 137        
3.484 1.742 5 330 30.1195 -84.8366 138        
3.484 1.742 5 335 25.1644 -83.4276 139        
3.484 1.742 5 340 20.2264 -81.4202 140        
3.484 1.742 5 345 15.3222 -78.2385 141        
3.484 1.742 5 350 10.4996 -72.2652 142        
3.484 1.742 5 355 5.96 -57.0337 143        
              
3.484 1.742 10 0 8.258 0 144        
3.484 1.742 10 5 9.6379 31.355 145        
3.484 1.742 10 10 12.9216 50.9121 146        
3.484 1.742 10 15 17.042 61.9717 147        
3.484 1.742 10 20 21.5234 68.7179 148        
3.484 1.742 10 25 26.1809 73.2209 149        
3.484 1.742 10 30 30.9348 76.4574 150        
3.484 1.742 10 35 35.7462 78.9229 151        
3.484 1.742 10 40 40.5943 80.8901 152        
3.484 1.742 10 45 45.4669 82.5204 153        
3.484 1.742 10 50 50.3565 83.9147 154        
3.484 1.742 10 55 55.2581 85.14 155        
3.484 1.742 10 60 60.1682 86.2427 156        
3.484 1.742 10 65 65.0843 87.2561 157        
3.484 1.742 10 70 70.0045 88.2055 158        
3.484 1.742 10 75 74.9271 89.1108 159        
3.484 1.742 10 80 79.8509 89.9882 160        
3.484 1.742 10 85 84.7748 90.8521 161        
3.484 1.742 10 90 89.6976 91.7156 162        
3.484 1.742 10 95 94.6181 92.5913 163        
3.484 1.742 10 100 99.5351 93.4925 164        
3.484 1.742 10 105 104.4474 94.4336 165        
3.484 1.742 10 110 109.3531 95.4311 166        
3.484 1.742 10 115 114.2505 96.5048 167        
3.484 1.742 10 120 119.1369 97.6795 168        
3.484 1.742 10 125 124.009 98.9871 169        
3.484 1.742 10 130 128.8623 100.4705 170        
3.484 1.742 10 135 133.6906 102.1889 171        
3.484 1.742 10 140 138.4847 104.227 172        
3.484 1.742 10 145 143.231 106.7105 173        
3.484 1.742 10 150 147.908 109.8328 174        
3.484 1.742 10 155 152.4798 113.9058 175        
3.484 1.742 10 160 156.8837 119.4519 176        
3.484 1.742 10 165 161.0025 127.3721 177        
3.484 1.742 10 170 164.6052 139.1701 178        
3.484 1.742 10 175 167.2463 156.758 179        
3.484 1.742 10 180 168.258 -180 180        
3.484 1.742 10 185 167.2463 -156.758 181        
3.484 1.742 10 190 164.6052 -139.1701 182        
3.484 1.742 10 195 161.0025 -127.3721 183        
3.484 1.742 10 200 156.8837 -119.4519 184        
3.484 1.742 10 205 152.4798 -113.9058 185        
3.484 1.742 10 210 147.908 -109.8328 186        
3.484 1.742 10 215 143.231 -106.7105 187        
3.484 1.742 10 220 138.4847 -104.227 188        
3.484 1.742 10 225 133.6906 -102.1889 189        
3.484 1.742 10 230 128.8623 -100.4705 190        
3.484 1.742 10 235 124.009 -98.9871 191        
3.484 1.742 10 240 119.1369 -97.6795 192        
3.484 1.742 10 245 114.2505 -96.5048 193        
3.484 1.742 10 250 109.3531 -95.4311 194        
3.484 1.742 10 255 104.4474 -94.4336 195        
3.484 1.742 10 260 99.5351 -93.4925 196        
3.484 1.742 10 265 94.6181 -92.5913 197        
3.484 1.742 10 270 89.6976 -91.7156 198        
3.484 1.742 10 275 84.7748 -90.8521 199        
3.484 1.742 10 280 79.8509 -89.9882 200        
3.484 1.742 10 285 74.9271 -89.1108 201        
3.484 1.742 10 290 70.0045 -88.2055 202        
3.484 1.742 10 295 65.0843 -87.2561 203        
3.484 1.742 10 300 60.1682 -86.2427 204        
3.484 1.742 10 305 55.2581 -85.14 205        
3.484 1.742 10 310 50.3565 -83.9147 206        
3.484 1.742 10 315 45.4669 -82.5204 207        
3.484 1.742 10 320 40.5943 -80.8901 208        
3.484 1.742 10 325 35.7462 -78.9229 209        
3.484 1.742 10 330 30.9348 -76.4574 210        
3.484 1.742 10 335 26.1809 -73.2209 211        
3.484 1.742 10 340 21.5234 -68.7179 212        
3.484 1.742 10 345 17.042 -61.9717 213        
3.484 1.742 10 350 12.9216 -50.9121 214        
3.484 1.742 10 355 9.6379 -31.355 215        
              
3.484 1.742 15 0 13.258 0 216        
3.484 1.742 15 5 14.1467 20.8817 217        
3.484 1.742 15 10 16.5283 37.5971 218        
3.484 1.742 15 15 19.8728 49.555 219        
3.484 1.742 15 20 23.777 57.9861 220        
3.484 1.742 15 25 28.0071 64.1021 221        
3.484 1.742 15 30 32.4353 68.7174 222        
3.484 1.742 15 35 36.9898 72.3377 223        
3.484 1.742 15 40 41.6285 75.2785 224        
3.484 1.742 15 45 46.3252 77.7416 225        
3.484 1.742 15 50 51.063 79.8612 226        
3.484 1.742 15 55 55.8304 81.7291 227        
3.484 1.742 15 60 60.6195 83.4111 228        
3.484 1.742 15 65 65.4242 84.9553 229        
3.484 1.742 15 70 70.24 86.3985 230        
3.484 1.742 15 75 75.0633 87.7702 231        
3.484 1.742 15 80 79.891 89.0944 232        
3.484 1.742 15 85 84.7205 90.3922 233        
3.484 1.742 15 90 89.5492 91.6827 234        
3.484 1.742 15 95 94.3747 92.9843 235        
3.484 1.742 15 100 99.1945 94.3157 236        
3.484 1.742 15 105 104.0056 95.6972 237        
3.484 1.742 15 110 108.8048 97.1512 238        
3.484 1.742 15 115 113.5883 98.7046 239        
3.484 1.742 15 120 118.351 100.3898 240        
3.484 1.742 15 125 123.0868 102.2483 241        
3.484 1.742 15 130 127.7872 104.3337 242        
3.484 1.742 15 135 132.4409 106.7184 243        
3.484 1.742 15 140 137.0318 109.5016 244        
3.484 1.742 15 145 141.5367 112.8237 245        
3.484 1.742 15 150 145.9206 116.8869 246        
3.484 1.742 15 155 150.1295 121.9869 247        
3.484 1.742 15 160 154.0775 128.5545 248        
3.484 1.742 15 165 157.6252 137.1875 249        
3.484 1.742 15 170 160.552 148.5805 250        
3.484 1.742 15 175 162.5421 163.1193 251        
3.484 1.742 15 180 163.258 -180 252        
3.484 1.742 15 185 162.5421 -163.1193 253        
3.484 1.742 15 190 160.552 -148.5805 254        
3.484 1.742 15 195 157.6252 -137.1875 255        
3.484 1.742 15 200 154.0775 -128.5545 256        
3.484 1.742 15 205 150.1295 -121.9869 257        
3.484 1.742 15 210 145.9206 -116.8869 258        
3.484 1.742 15 215 141.5367 -112.8237 259        
3.484 1.742 15 220 137.0318 -109.5016 260        
3.484 1.742 15 225 132.4409 -106.7184 261        
3.484 1.742 15 230 127.7872 -104.3337 262        
3.484 1.742 15 235 123.0868 -102.2483 263        
3.484 1.742 15 240 118.351 -100.3898 264        
3.484 1.742 15 245 113.5883 -98.7046 265        
3.484 1.742 15 250 108.8048 -97.1512 266        
3.484 1.742 15 255 104.0056 -95.6972 267        
3.484 1.742 15 260 99.1945 -94.3157 268        
3.484 1.742 15 265 94.3747 -92.9843 269        
3.484 1.742 15 270 89.5492 -91.6827 270        
3.484 1.742 15 275 84.7205 -90.3922 271        
3.484 1.742 15 280 79.891 -89.0944 272        
3.484 1.742 15 285 75.0633 -87.7702 273        
3.484 1.742 15 290 70.24 -86.3985 274        
3.484 1.742 15 295 65.4242 -84.9553 275        
3.484 1.742 15 300 60.6195 -83.4111 276        
3.484 1.742 15 305 55.8304 -81.7291 277        
3.484 1.742 15 310 51.063 -79.8612 278        
3.484 1.742 15 315 46.3252 -77.7416 279        
3.484 1.742 15 320 41.6285 -75.2785 280        
3.484 1.742 15 325 36.9898 -72.3377 281        
3.484 1.742 15 330 32.4353 -68.7174 282        
3.484 1.742 15 335 28.0071 -64.1021 283        
3.484 1.742 15 340 23.777 -57.9861 284        
3.484 1.742 15 345 19.8728 -49.555 285        
3.484 1.742 15 350 16.5283 -37.5971 286        
3.484 1.742 15 355 14.1467 -20.8817 287        
              
3.484 1.742 20 0 18.258 0 288        
3.484 1.742 20 5 18.9007 15.6008 289        
3.484 1.742 20 10 20.7094 29.3945 290        
3.484 1.742 20 15 23.415 40.6171 291        
3.484 1.742 20 20 26.7459 49.4321 292        
3.484 1.742 20 25 30.4972 56.3427 293        
3.484 1.742 20 30 34.5311 61.8426 294        
3.484 1.742 20 35 38.7584 66.3163 295        
3.484 1.742 20 40 43.1211 70.0419 296        
3.484 1.742 20 45 47.5806 73.2165 297        
3.484 1.742 20 50 52.1105 75.9809 298        
3.484 1.742 20 55 56.6924 78.4371 299        
3.484 1.742 20 60 61.3129 80.6604 300        
3.484 1.742 20 65 65.9619 82.7084 301        
3.484 1.742 20 70 70.6315 84.6259 302        
3.484 1.742 20 75 75.3156 86.449 303        
3.484 1.742 20 80 80.0088 88.2079 304        
3.484 1.742 20 85 84.7064 89.9292 305        
3.484 1.742 20 90 89.4043 91.637 306        
3.484 1.742 20 95 94.0981 93.3543 307        
3.484 1.742 20 100 98.7836 95.1045 308        
3.484 1.742 20 105 103.4561 96.9123 309        
3.484 1.742 20 110 108.1104 98.805 310        
3.484 1.742 20 115 112.74 100.8144 311        
3.484 1.742 20 120 117.3376 102.9781 312        
3.484 1.742 20 125 121.8933 105.3429 313        
3.484 1.742 20 130 126.3949 107.9677 314        
3.484 1.742 20 135 130.8256 110.9287 315        
3.484 1.742 20 140 135.1631 114.326 316        
3.484 1.742 20 145 139.376 118.2927 317        
3.484 1.742 20 150 143.4199 123.0059 318        
3.484 1.742 20 155 147.2311 128.6978 319        
3.484 1.742 20 160 150.7173 135.6584 320        
3.484 1.742 20 165 153.7479 144.2063 321        
3.484 1.742 20 170 156.1478 154.5818 322        
3.484 1.742 20 175 157.7117 166.7209 323        
3.484 1.742 20 180 158.258 -180 324        
3.484 1.742 20 185 157.7117 -166.7209 325        
3.484 1.742 20 190 156.1478 -154.5818 326        
3.484 1.742 20 195 153.7479 -144.2063 327        
3.484 1.742 20 200 150.7173 -135.6584 328        
3.484 1.742 20 205 147.2311 -128.6978 329        
3.484 1.742 20 210 143.4199 -123.0059 330        
3.484 1.742 20 215 139.376 -118.2927 331        
3.484 1.742 20 220 135.1631 -114.326 332        
3.484 1.742 20 225 130.8256 -110.9287 333        
3.484 1.742 20 230 126.3949 -107.9677 334        
3.484 1.742 20 235 121.8933 -105.3429 335        
3.484 1.742 20 240 117.3376 -102.9781 336        
3.484 1.742 20 245 112.74 -100.8144 337        
3.484 1.742 20 250 108.1104 -98.805 338        
3.484 1.742 20 255 103.4561 -96.9123 339        
3.484 1.742 20 260 98.7836 -95.1045 340        
3.484 1.742 20 265 94.0981 -93.3543 341        
3.484 1.742 20 270 89.4043 -91.637 342        
3.484 1.742 20 275 84.7064 -89.9292 343        
3.484 1.742 20 280 80.0088 -88.2079 344        
3.484 1.742 20 285 75.3156 -86.449 345        
3.484 1.742 20 290 70.6315 -84.6259 346        
3.484 1.742 20 295 65.9619 -82.7084 347        
3.484 1.742 20 300 61.3129 -80.6604 348        
3.484 1.742 20 305 56.6924 -78.4371 349        
3.484 1.742 20 310 52.1105 -75.9809 350        
3.484 1.742 20 315 47.5806 -73.2165 351        
3.484 1.742 20 320 43.1211 -70.0419 352        
3.484 1.742 20 325 38.7584 -66.3163 353        
3.484 1.742 20 330 34.5311 -61.8426 354        
3.484 1.742 20 335 30.4972 -56.3427 355        
3.484 1.742 20 340 26.7459 -49.4321 356        
3.484 1.742 20 345 23.415 -40.6171 357        
3.484 1.742 20 350 20.7094 -29.3945 358        
3.484 1.742 20 355 18.9007 -15.6008 359        
              
3.484 1.742 25 0 23.258 0 360        
3.484 1.742 25 5 23.7532 12.4904 361        
3.484 1.742 25 10 25.1803 24.0759 362        
3.484 1.742 25 15 27.3934 34.213 363        
3.484 1.742 25 20 30.2194 42.783 364        
3.484 1.742 25 25 33.5025 49.9332 365        
3.484 1.742 25 30 37.1203 55.9071 366        
3.484 1.742 25 35 40.9827 60.9476 367        
3.484 1.742 25 40 45.025 65.2609 368        
3.484 1.742 25 45 49.201 69.0113 369        
3.484 1.742 25 50 53.4773 72.3262 370        
3.484 1.742 25 55 57.8293 75.3039 371        
3.484 1.742 25 60 62.2385 78.0211 372        
3.484 1.742 25 65 66.6908 80.5382 373        
3.484 1.742 25 70 71.175 82.9039 374        
3.484 1.742 25 75 75.6817 85.1584 375        
3.484 1.742 25 80 80.2033 87.3359 376        
3.484 1.742 25 85 84.7328 89.4669 377        
3.484 1.742 25 90 89.2639 91.5789 378        
3.484 1.742 25 95 93.7904 93.6986 379        
3.484 1.742 25 100 98.3059 95.8528 380        
3.484 1.742 25 105 102.8039 98.0694 381        
3.484 1.742 25 110 107.2766 100.3789 382        
3.484 1.742 25 115 111.7155 102.8157 383        
3.484 1.742 25 120 116.1101 105.4203 384        
3.484 1.742 25 125 120.4476 108.2406 385        
3.484 1.742 25 130 124.7117 111.3356 386        
3.484 1.742 25 135 128.8816 114.778 387        
3.484 1.742 25 140 132.93 118.6583 388        
3.484 1.742 25 145 136.8205 123.0889 389        
3.484 1.742 25 150 140.5046 128.2071 390        
3.484 1.742 25 155 143.9172 134.1726 391        
3.484 1.742 25 160 146.9726 141.1544 392        
3.484 1.742 25 165 149.5616 149.2931 393        
3.484 1.742 25 170 151.5555 158.6291 394        
3.484 1.742 25 175 152.8223 169.0047 395        
3.484 1.742 25 180 153.258 -180 396        
3.484 1.742 25 185 152.8223 -169.0047 397        
3.484 1.742 25 190 151.5555 -158.6291 398        
3.484 1.742 25 195 149.5616 -149.2931 399        
3.484 1.742 25 200 146.9726 -141.1544 400        
3.484 1.742 25 205 143.9172 -134.1726 401        
3.484 1.742 25 210 140.5046 -128.2071 402        
3.484 1.742 25 215 136.8205 -123.0889 403        
3.484 1.742 25 220 132.93 -118.6583 404        
3.484 1.742 25 225 128.8816 -114.778 405        
3.484 1.742 25 230 124.7117 -111.3356 406        
3.484 1.742 25 235 120.4475 -108.2406 407        
3.484 1.742 25 240 116.1101 -105.4203 408        
3.484 1.742 25 245 111.7155 -102.8157 409        
3.484 1.742 25 250 107.2766 -100.3789 410        
3.484 1.742 25 255 102.8039 -98.0694 411        
3.484 1.742 25 260 98.3059 -95.8528 412        
3.484 1.742 25 265 93.7904 -93.6986 413        
3.484 1.742 25 270 89.2639 -91.5789 414        
3.484 1.742 25 275 84.7328 -89.4669 415        
3.484 1.742 25 280 80.2033 -87.3359 416        
3.484 1.742 25 285 75.6817 -85.1584 417        
3.484 1.742 25 290 71.175 -82.9039 418        
3.484 1.742 25 295 66.6908 -80.5382 419        
3.484 1.742 25 300 62.2385 -78.0211 420        
3.484 1.742 25 305 57.8293 -75.3039 421        
3.484 1.742 25 310 53.4773 -72.3262 422        
3.484 1.742 25 315 49.201 -69.0113 423        
3.484 1.742 25 320 45.025 -65.2609 424        
3.484 1.742 25 325 40.9827 -60.9476 425        
3.484 1.742 25 330 37.1203 -55.9071 426        
3.484 1.742 25 335 33.5025 -49.9332 427        
3.484 1.742 25 340 30.2194 -42.783 428        
3.484 1.742 25 345 27.3934 -34.213 429        
3.484 1.742 25 350 25.1803 -24.0759 430        
3.484 1.742 25 355 23.7532 -12.4904 431        
              
3.484 1.742 30 0 28.258 0 432        
3.484 1.742 30 5 28.6541 10.4672 433        
3.484 1.742 30 10 29.8106 20.4346 434        
3.484 1.742 30 15 31.6435 29.545 435        
3.484 1.742 30 20 34.0427 37.6383 436        
3.484 1.742 30 25 36.8964 44.7169 437        
3.484 1.742 30 30 40.1061 50.8769 438        
3.484 1.742 30 35 43.5912 56.251 439        
3.484 1.742 30 40 47.2885 60.974 440        
3.484 1.742 30 45 51.1496 65.1676 441        
3.484 1.742 30 50 55.1372 68.9349 442        
3.484 1.742 30 55 59.2228 72.3619 443        
3.484 1.742 30 60 63.3838 75.5191 444        
3.484 1.742 30 65 67.6026 78.4648 445        
3.484 1.742 30 70 71.8648 81.2477 446        
3.484 1.742 30 75 76.1583 83.9092 447        
3.484 1.742 30 80 80.4729 86.4854 448        
3.484 1.742 30 85 84.7994 89.0086 449        
3.484 1.742 30 90 89.1291 91.5087 450        
3.484 1.742 30 95 93.4539 94.0146 451        
3.484 1.742 30 100 97.7653 96.555 452        
3.484 1.742 30 105 102.0544 99.1597 453        
3.484 1.742 30 110 106.3116 101.8605 454        
3.484 1.742 30 115 110.5258 104.693 455        
3.484 1.742 30 120 114.684 107.6973 456        
3.484 1.742 30 125 118.7705 110.9197 457        
3.484 1.742 30 130 122.7663 114.4148 458        
3.484 1.742 30 135 126.6475 118.2468 459        
3.484 1.742 30 140 130.384 122.4911 460        
3.484 1.742 30 145 133.938 127.2346 461        
3.484 1.742 30 150 137.2611 132.5738 462        
3.484 1.742 30 155 140.2932 138.6075 463        
3.484 1.742 30 160 142.9607 145.4215 464        
3.484 1.742 30 165 145.178 153.061 465        
3.484 1.742 30 170 146.8535 161.4921 466        
3.484 1.742 30 175 147.9011 170.5643 467        
3.484 1.742 30 180 148.258 -180 468        
3.484 1.742 30 185 147.9011 -170.5643 469        
3.484 1.742 30 190 146.8535 -161.4921 470        
3.484 1.742 30 195 145.178 -153.061 471        
3.484 1.742 30 200 142.9607 -145.4215 472        
3.484 1.742 30 205 140.2932 -138.6075 473        
3.484 1.742 30 210 137.2611 -132.5738 474        
3.484 1.742 30 215 133.938 -127.2346 475        
3.484 1.742 30 220 130.384 -122.4911 476        
3.484 1.742 30 225 126.6475 -118.2468 477        
3.484 1.742 30 230 122.7663 -114.4148 478        
3.484 1.742 30 235 118.7705 -110.9197 479        
3.484 1.742 30 240 114.684 -107.6973 480        
3.484 1.742 30 245 110.5258 -104.693 481        
3.484 1.742 30 250 106.3116 -101.8605 482        
3.484 1.742 30 255 102.0544 -99.1597 483        
3.484 1.742 30 260 97.7653 -96.555 484        
3.484 1.742 30 265 93.4539 -94.0146 485        
3.484 1.742 30 270 89.1291 -91.5087 486        
3.484 1.742 30 275 84.7994 -89.0086 487        
3.484 1.742 30 280 80.4729 -86.4854 488        
3.484 1.742 30 285 76.1583 -83.9092 489        
3.484 1.742 30 290 71.8648 -81.2477 490        
3.484 1.742 30 295 67.6026 -78.4648 491        
3.484 1.742 30 300 63.3838 -75.5191 492        
3.484 1.742 30 305 59.2228 -72.3619 493        
3.484 1.742 30 310 55.1372 -68.9349 494        
3.484 1.742 30 315 51.1496 -65.1676 495        
3.484 1.742 30 320 47.2885 -60.974 496        
3.484 1.742 30 325 43.5912 -56.251 497        
3.484 1.742 30 330 40.1061 -50.8769 498        
3.484 1.742 30 335 36.8964 -44.7169 499        
3.484 1.742 30 340 34.0427 -37.6383 500        
3.484 1.742 30 345 31.6435 -29.545 501        
3.484 1.742 30 350 29.8106 -20.4346 502        
3.484 1.742 30 355 28.6541 -10.4672 503        
              
3.484 1.742 35 0 33.258 0 504        
3.484 1.742 35 5 33.5821 9.0615 505        
3.484 1.742 35 10 34.536 17.8278 506        
3.484 1.742 35 15 36.0688 26.0656 507        
3.484 1.742 35 20 38.1096 33.6364 508        
3.484 1.742 35 25 40.5801 40.4942 509        
3.484 1.742 35 30 43.405 46.661 510        
3.484 1.742 35 35 46.5173 52.1986 511        
3.484 1.742 35 40 49.8603 57.1859 512        
3.484 1.742 35 45 53.3878 61.7045 513        
3.484 1.742 35 50 57.0618 65.8311 514        
3.484 1.742 35 55 60.8521 69.6346 515        
3.484 1.742 35 60 64.7339 73.1753 516        
3.484 1.742 35 65 68.6869 76.5056 517        
3.484 1.742 35 70 72.6941 79.671 518        
3.484 1.742 35 75 76.7412 82.7116 519        
3.484 1.742 35 80 80.8155 85.663 520        
3.484 1.742 35 85 84.9056 88.558 521        
3.484 1.742 35 90 89.0009 91.4271 522        
3.484 1.742 35 95 93.0912 94.2999 523        
3.484 1.742 35 100 97.1659 97.2059 524        
3.484 1.742 35 105 101.2142 100.1752 525        
3.484 1.742 35 110 105.2244 103.2396 526        
3.484 1.742 35 115 109.1834 106.4335 527        
3.484 1.742 35 120 113.0759 109.7949 528        
3.484 1.742 35 125 116.8845 113.3661 529        
3.484 1.742 35 130 120.588 117.1945 530        
3.484 1.742 35 135 124.1613 121.3334 531        
3.484 1.742 35 140 127.5737 125.8413 532        
3.484 1.742 35 145 130.7881 130.7806 533        
3.484 1.742 35 150 133.7603 136.2137 534        
3.484 1.742 35 155 136.4376 142.1956 535        
3.484 1.742 35 160 138.7604 148.762 536        
3.484 1.742 35 165 140.6637 155.9128 537        
3.484 1.742 35 170 142.0827 163.5939 538        
3.484 1.742 35 175 142.9606 171.6846 539        
3.484 1.742 35 180 143.258 -180 540        
3.484 1.742 35 185 142.9606 -171.6846 541        
3.484 1.742 35 190 142.0827 -163.5939 542        
3.484 1.742 35 195 140.6637 -155.9128 543        
3.484 1.742 35 200 138.7604 -148.762 544        
3.484 1.742 35 205 136.4376 -142.1956 545        
3.484 1.742 35 210 133.7603 -136.2137 546        
3.484 1.742 35 215 130.7881 -130.7806 547        
3.484 1.742 35 220 127.5737 -125.8413 548        
3.484 1.742 35 225 124.1613 -121.3334 549        
3.484 1.742 35 230 120.588 -117.1945 550        
3.484 1.742 35 235 116.8845 -113.3661 551        
3.484 1.742 35 240 113.0759 -109.7949 552        
3.484 1.742 35 245 109.1834 -106.4335 553        
3.484 1.742 35 250 105.2244 -103.2396 554        
3.484 1.742 35 255 101.2142 -100.1752 555        
3.484 1.742 35 260 97.1659 -97.2059 556        
3.484 1.742 35 265 93.0912 -94.2999 557        
3.484 1.742 35 270 89.0009 -91.4271 558        
3.484 1.742 35 275 84.9056 -88.558 559        
3.484 1.742 35 280 80.8155 -85.663 560        
3.484 1.742 35 285 76.7412 -82.7116 561        
3.484 1.742 35 290 72.6941 -79.671 562        
3.484 1.742 35 295 68.6869 -76.5056 563        
3.484 1.742 35 300 64.7339 -73.1753 564        
3.484 1.742 35 305 60.8521 -69.6346 565        
3.484 1.742 35 310 57.0618 -65.8311 566        
3.484 1.742 35 315 53.3878 -61.7045 567        
3.484 1.742 35 320 49.8603 -57.1859 568        
3.484 1.742 35 325 46.5173 -52.1986 569        
3.484 1.742 35 330 43.405 -46.661 570        
3.484 1.742 35 335 40.5801 -40.4942 571        
3.484 1.742 35 340 38.1096 -33.6364 572        
3.484 1.742 35 345 36.0688 -26.0656 573        
3.484 1.742 35 350 34.536 -17.8278 574        
3.484 1.742 35 355 33.5821 -9.0615 575        
              
3.484 1.742 40 0 38.258 0 576        
3.484 1.742 40 5 38.5268 8.0397 577        
3.484 1.742 40 10 39.3219 15.8968 578        
3.484 1.742 40 15 40.6115 23.4178 579        
3.484 1.742 40 20 42.3491 30.4961 580        
3.484 1.742 40 25 44.4803 37.0771 581        
3.484 1.742 40 30 46.9491 43.1503 582        
3.484 1.742 40 35 49.7025 48.737 583        
3.484 1.742 40 40 52.6925 53.878 584        
3.484 1.742 40 45 55.8774 58.6235 585        
3.484 1.742 40 50 59.2218 63.0262 586        
3.484 1.742 40 55 62.6953 67.1376 587        
3.484 1.742 40 60 66.2726 71.0059 588        
3.484 1.742 40 65 69.932 74.6754 589        
3.484 1.742 40 70 73.6549 78.1862 590        
3.484 1.742 40 75 77.4251 81.5749 591        
3.484 1.742 40 80 81.2281 84.8752 592        
3.484 1.742 40 85 85.0507 88.1185 593        
3.484 1.742 40 90 88.8804 91.3346 594        
3.484 1.742 40 95 92.705 94.5525 595        
3.484 1.742 40 100 96.5125 97.8008 596        
3.484 1.742 40 105 100.2903 101.1089 597        
3.484 1.742 40 110 104.0248 104.507 598        
3.484 1.742 40 115 107.7013 108.0271 599        
3.484 1.742 40 120 111.3033 111.7033 600        
3.484 1.742 40 125 114.812 115.5723 601        
3.484 1.742 40 130 118.2056 119.6734 602        
3.484 1.742 40 135 121.4588 124.0483 603        
3.484 1.742 40 140 124.5422 128.7397 604        
3.484 1.742 40 145 127.4217 133.7895 605        
3.484 1.742 40 150 130.0583 139.2348 606        
3.484 1.742 40 155 132.4084 145.1023 607        
3.484 1.742 40 160 134.4249 151.4004 608        
3.484 1.742 40 165 136.0594 158.1108 609        
3.484 1.742 40 170 137.2665 165.1803 610        
3.484 1.742 40 175 138.0079 172.5182 611        
3.484 1.742 40 180 138.258 -180 612        
3.484 1.742 40 185 138.0079 -172.5182 613        
3.484 1.742 40 190 137.2665 -165.1803 614        
3.484 1.742 40 195 136.0594 -158.1108 615        
3.484 1.742 40 200 134.4249 -151.4004 616        
3.484 1.742 40 205 132.4084 -145.1023 617        
3.484 1.742 40 210 130.0583 -139.2348 618        
3.484 1.742 40 215 127.4217 -133.7895 619        
3.484 1.742 40 220 124.5422 -128.7397 620        
3.484 1.742 40 225 121.4588 -124.0483 621        
3.484 1.742 40 230 118.2056 -119.6734 622        
3.484 1.742 40 235 114.812 -115.5723 623        
3.484 1.742 40 240 111.3033 -111.7033 624        
3.484 1.742 40 245 107.7013 -108.0271 625        
3.484 1.742 40 250 104.0248 -104.507 626        
3.484 1.742 40 255 100.2903 -101.1089 627        
3.484 1.742 40 260 96.5125 -97.8008 628        
3.484 1.742 40 265 92.705 -94.5525 629        
3.484 1.742 40 270 88.8804 -91.3346 630        
3.484 1.742 40 275 85.0507 -88.1185 631        
3.484 1.742 40 280 81.2281 -84.8752 632        
3.484 1.742 40 285 77.4251 -81.5749 633        
3.484 1.742 40 290 73.6549 -78.1862 634        
3.484 1.742 40 295 69.932 -74.6754 635        
3.484 1.742 40 300 66.2726 -71.0059 636        
3.484 1.742 40 305 62.6953 -67.1376 637        
3.484 1.742 40 310 59.2218 -63.0262 638        
3.484 1.742 40 315 55.8774 -58.6235 639        
3.484 1.742 40 320 52.6925 -53.878 640        
3.484 1.742 40 325 49.7025 -48.737 641        
3.484 1.742 40 330 46.9491 -43.1503 642        
3.484 1.742 40 335 44.4803 -37.0771 643        
3.484 1.742 40 340 42.3491 -30.4961 644        
3.484 1.742 40 345 40.6115 -23.4178 645        
3.484 1.742 40 350 39.3219 -15.8968 646        
3.484 1.742 40 355 38.5268 -8.0397 647        
              
3.484 1.742 45 0 43.258 0 648        
3.484 1.742 45 5 43.4824 7.273 649        
3.484 1.742 45 10 44.1484 14.4298 650        
3.484 1.742 45 15 45.2357 21.3682 651        
3.484 1.742 45 20 46.7132 28.0107 652        
3.484 1.742 45 25 48.5432 34.3079 653        
3.484 1.742 45 30 50.6849 40.2384 654        
3.484 1.742 45 35 53.0975 45.8029 655        
3.484 1.742 45 40 55.742 51.0188 656        
3.484 1.742 45 45 58.5829 55.914 657        
3.484 1.742 45 50 61.5882 60.5223 658        
3.484 1.742 45 55 64.7298 64.8796 659        
3.484 1.742 45 60 67.9828 69.0224 660        
3.484 1.742 45 65 71.3254 72.9858 661        
3.484 1.742 45 70 74.7383 76.8037 662        
3.484 1.742 45 75 78.2043 80.5077 663        
3.484 1.742 45 80 81.7075 84.1281 664        
3.484 1.742 45 85 85.2335 87.6936 665        
3.484 1.742 45 90 88.7683 91.232 666        
3.484 1.742 45 95 92.2984 94.7703 667        
3.484 1.742 45 100 95.8103 98.3356 668        
3.484 1.742 45 105 99.2901 101.9548 669        
3.484 1.742 45 110 102.723 105.6556 670        
3.484 1.742 45 115 106.0933 109.4663 671        
3.484 1.742 45 120 109.3838 113.4165 672        
3.484 1.742 45 125 112.5753 117.5364 673        
3.484 1.742 45 130 115.6463 121.8571 674        
3.484 1.742 45 135 118.5727 126.4095 675        
3.484 1.742 45 140 121.3275 131.2233 676        
3.484 1.742 45 145 123.8807 136.3248 677        
3.484 1.742 45 150 126.1992 141.7338 678        
3.484 1.742 45 155 128.2479 147.4602 679        
3.484 1.742 45 160 129.9905 153.4994 680        
3.484 1.742 45 165 131.3916 159.8282 681        
3.484 1.742 45 170 132.419 166.4017 682        
3.484 1.742 45 175 133.0468 173.1537 683        
3.484 1.742 45 180 133.258 -180 684        
3.484 1.742 45 185 133.0468 -173.1537 685        
3.484 1.742 45 190 132.419 -166.4017 686        
3.484 1.742 45 195 131.3916 -159.8282 687        
3.484 1.742 45 200 129.9905 -153.4994 688        
3.484 1.742 45 205 128.2479 -147.4602 689        
3.484 1.742 45 210 126.1992 -141.7338 690        
3.484 1.742 45 215 123.8807 -136.3248 691        
3.484 1.742 45 220 121.3275 -131.2233 692        
3.484 1.742 45 225 118.5727 -126.4095 693        
3.484 1.742 45 230 115.6463 -121.8571 694        
3.484 1.742 45 235 112.5753 -117.5364 695        
3.484 1.742 45 240 109.3838 -113.4165 696        
3.484 1.742 45 245 106.0933 -109.4663 697        
3.484 1.742 45 250 102.723 -105.6556 698        
3.484 1.742 45 255 99.2901 -101.9548 699        
3.484 1.742 45 260 95.8103 -98.3356 700        
3.484 1.742 45 265 92.2984 -94.7703 701        
3.484 1.742 45 270 88.7683 -91.232 702        
3.484 1.742 45 275 85.2335 -87.6936 703        
3.484 1.742 45 280 81.7075 -84.1281 704        
3.484 1.742 45 285 78.2043 -80.5077 705        
3.484 1.742 45 290 74.7383 -76.8037 706        
3.484 1.742 45 295 71.3254 -72.9858 707        
3.484 1.742 45 300 67.9828 -69.0224 708        
3.484 1.742 45 305 64.7298 -64.8796 709        
3.484 1.742 45 310 61.5882 -60.5223 710        
3.484 1.742 45 315 58.5829 -55.914 711        
3.484 1.742 45 320 55.742 -51.0188 712        
3.484 1.742 45 325 53.0975 -45.8029 713        
3.484 1.742 45 330 50.6849 -40.2384 714        
3.484 1.742 45 335 48.5432 -34.3079 715        
3.484 1.742 45 340 46.7132 -28.0107 716        
3.484 1.742 45 345 45.2357 -21.3682 717        
3.484 1.742 45 350 44.1484 -14.4298 718        
3.484 1.742 45 355 43.4824 -7.273 719        
              
3.484 1.742 50 0 48.258 0 720        
3.484 1.742 50 5 48.4455 6.6852 721        
3.484 1.742 50 10 49.0032 13.2952 722        
3.484 1.742 50 15 49.9179 19.7621 723        
3.484 1.742 50 20 51.1686 26.0306 724        
3.484 1.742 50 25 52.7293 32.0613 725        
3.484 1.742 50 30 54.5705 37.8315 726        
3.484 1.742 50 35 56.6615 43.3332 727        
3.484 1.742 50 40 58.9716 48.5708 728        
3.484 1.742 50 45 61.4715 53.5579 729        
3.484 1.742 50 50 64.1337 58.3143 730        
3.484 1.742 50 55 66.9332 62.8637 731        
3.484 1.742 50 60 69.8468 67.2321 732        
3.484 1.742 50 65 72.8535 71.4461 733        
3.484 1.742 50 70 75.9345 75.5324 734        
3.484 1.742 50 75 79.072 79.5175 735        
3.484 1.742 50 80 82.2498 83.4272 736        
3.484 1.742 50 85 85.4526 87.2864 737        
3.484 1.742 50 90 88.6656 91.1199 738        
3.484 1.742 50 95 91.8745 94.952 739        
3.484 1.742 50 100 95.0647 98.8065 740        
3.484 1.742 50 105 98.2216 102.7076 741        
3.484 1.742 50 110 101.3299 106.6793 742        
3.484 1.742 50 115 104.3735 110.7458 743        
3.484 1.742 50 120 107.335 114.9313 744        
3.484 1.742 50 125 110.1959 119.26 745        
3.484 1.742 50 130 112.9357 123.7551 746        
3.484 1.742 50 135 115.5325 128.4387 747        
3.484 1.742 50 140 117.9622 133.3302 748        
3.484 1.742 50 145 120.1994 138.4449 749        
3.484 1.742 50 150 122.2169 143.792 750        
3.484 1.742 50 155 123.9872 149.3723 751        
3.484 1.742 50 160 125.4827 155.1763 752        
3.484 1.742 50 165 126.6776 161.1819 753        
3.484 1.742 50 170 127.5492 167.3543 754        
3.484 1.742 50 175 128.0798 173.646 755        
3.484 1.742 50 180 128.258 -180 756        
3.484 1.742 50 185 128.0798 -173.646 757        
3.484 1.742 50 190 127.5492 -167.3543 758        
3.484 1.742 50 195 126.6776 -161.1819 759        
3.484 1.742 50 200 125.4827 -155.1763 760        
3.484 1.742 50 205 123.9872 -149.3723 761        
3.484 1.742 50 210 122.2169 -143.792 762        
3.484 1.742 50 215 120.1994 -138.4449 763        
3.484 1.742 50 220 117.9622 -133.3302 764        
3.484 1.742 50 225 115.5325 -128.4387 765        
3.484 1.742 50 230 112.9357 -123.7551 766        
3.484 1.742 50 235 110.1959 -119.26 767        
3.484 1.742 50 240 107.335 -114.9313 768        
3.484 1.742 50 245 104.3735 -110.7458 769        
3.484 1.742 50 250 101.3299 -106.6793 770        
3.484 1.742 50 255 98.2216 -102.7076 771        
3.484 1.742 50 260 95.0647 -98.8065 772        
3.484 1.742 50 265 91.8745 -94.952 773        
3.484 1.742 50 270 88.6656 -91.1199 774        
3.484 1.742 50 275 85.4526 -87.2864 775        
3.484 1.742 50 280 82.2498 -83.4272 776        
3.484 1.742 50 285 79.072 -79.5175 777        
3.484 1.742 50 290 75.9345 -75.5324 778        
3.484 1.742 50 295 72.8535 -71.4461 779        
3.484 1.742 50 300 69.8468 -67.2321 780        
3.484 1.742 50 305 66.9332 -62.8637 781        
3.484 1.742 50 310 64.1337 -58.3143 782        
3.484 1.742 50 315 61.4715 -53.5579 783        
3.484 1.742 50 320 58.9716 -48.5708 784        
3.484 1.742 50 325 56.6615 -43.3332 785        
3.484 1.742 50 330 54.5705 -37.8315 786        
3.484 1.742 50 335 52.7293 -32.0613 787        
3.484 1.742 50 340 51.1686 -26.0306 788        
3.484 1.742 50 345 49.9179 -19.7621 789        
3.484 1.742 50 350 49.0032 -13.2952 790        
3.484 1.742 50 355 48.4455 -6.6852 791        
              
3.484 1.742 55 0 53.258 0 792        
3.484 1.742 55 5 53.4138 6.2284 793        
3.484 1.742 55 10 53.8783 12.4081 794        
3.484 1.742 55 15 54.6424 18.494 795        
3.484 1.742 55 20 55.6922 24.4479 796        
3.484 1.742 55 25 57.0096 30.2402 797        
3.484 1.742 55 30 58.5736 35.8512 798        
3.484 1.742 55 35 60.3612 41.2705 799        
3.484 1.742 55 40 62.3491 46.4962 800        
3.484 1.742 55 45 64.5138 51.5335 801        
3.484 1.742 55 50 66.8326 56.3928 802        
3.484 1.742 55 55 69.2838 61.089 803        
3.484 1.742 55 60 71.8469 65.6392 804        
3.484 1.742 55 65 74.5027 70.0628 805        
3.484 1.742 55 70 77.2331 74.3799 806        
3.484 1.742 55 75 80.0211 78.6112 807        
3.484 1.742 55 80 82.8507 82.7777 808        
3.484 1.742 55 85 85.7063 86.9001 809        
3.484 1.742 55 90 88.5731 90.9994 810        
3.484 1.742 55 95 91.4363 95.096 811        
3.484 1.742 55 100 94.2813 99.2105 812        
3.484 1.742 55 105 97.0931 103.363 813        
3.484 1.742 55 110 99.8566 107.5736 814        
3.484 1.742 55 115 102.5558 111.8619 815        
3.484 1.742 55 120 105.1742 116.247 816        
3.484 1.742 55 125 107.6942 120.7472 817        
3.484 1.742 55 130 110.0973 125.3794 818        
3.484 1.742 55 135 112.3641 130.1584 819        
3.484 1.742 55 140 114.474 135.0963 820        
3.484 1.742 55 145 116.4059 140.2011 821        
3.484 1.742 55 150 118.1383 145.4759 822        
3.484 1.742 55 155 119.6497 150.9177 823        
3.484 1.742 55 160 120.9196 156.516 824        
3.484 1.742 55 165 121.9295 162.2528 825        
3.484 1.742 55 170 122.6632 168.1018 826        
3.484 1.742 55 175 123.1086 174.0304 827        
3.484 1.742 55 180 123.258 -180 828        
3.484 1.742 55 185 123.1086 -174.0304 829        
3.484 1.742 55 190 122.6632 -168.1018 830        
3.484 1.742 55 195 121.9295 -162.2528 831        
3.484 1.742 55 200 120.9196 -156.516 832        
3.484 1.742 55 205 119.6497 -150.9177 833        
3.484 1.742 55 210 118.1383 -145.4759 834        
3.484 1.742 55 215 116.4059 -140.2011 835        
3.484 1.742 55 220 114.474 -135.0963 836        
3.484 1.742 55 225 112.3641 -130.1584 837        
3.484 1.742 55 230 110.0973 -125.3794 838        
3.484 1.742 55 235 107.6942 -120.7472 839        
3.484 1.742 55 240 105.1742 -116.247 840        
3.484 1.742 55 245 102.5558 -111.8619 841        
3.484 1.742 55 250 99.8566 -107.5736 842        
3.484 1.742 55 255 97.0931 -103.363 843        
3.484 1.742 55 260 94.2813 -99.2105 844        
3.484 1.742 55 265 91.4363 -95.096 845        
3.484 1.742 55 270 88.5731 -90.9994 846        
3.484 1.742 55 275 85.7063 -86.9001 847        
3.484 1.742 55 280 82.8507 -82.7777 848        
3.484 1.742 55 285 80.0211 -78.6112 849        
3.484 1.742 55 290 77.2331 -74.3799 850        
3.484 1.742 55 295 74.5027 -70.0628 851        
3.484 1.742 55 300 71.8469 -65.6392 852        
3.484 1.742 55 305 69.2838 -61.089 853        
3.484 1.742 55 310 66.8326 -56.3928 854        
3.484 1.742 55 315 64.5138 -51.5335 855        
3.484 1.742 55 320 62.3491 -46.4962 856        
3.484 1.742 55 325 60.3612 -41.2705 857        
3.484 1.742 55 330 58.5736 -35.8512 858        
3.484 1.742 55 335 57.0096 -30.2402 859        
3.484 1.742 55 340 55.6922 -24.4479 860        
3.484 1.742 55 345 54.6424 -18.494 861        
3.484 1.742 55 350 53.8783 -12.4081 862        
3.484 1.742 55 355 53.4138 -6.2284 863        
              
3.484 1.742 60 0 58.258 0 864  3.484 1.742 60 0 58.258 0 864
3.484 1.742 60 5 58.386 5.8714 865  3.484 1.742 60 5 58.386 5.8714 865
3.484 1.742 60 10 58.7681 11.7116 866  3.484 1.742 60 10 58.7681 11.7116 866
3.484 1.742 60 15 59.3984 17.4912 867  3.484 1.742 60 15 59.3984 17.4912 867
3.484 1.742 60 20 60.2672 23.1845 868  3.484 1.742 60 20 60.2672 23.1845 868
3.484 1.742 60 25 61.3622 28.7705 869  3.484 1.742 60 25 61.3622 28.7705 869
3.484 1.742 60 30 62.6684 34.2338 870  3.484 1.742 60 30 62.6684 34.2338 870
3.484 1.742 60 35 64.1693 39.5649 871  3.484 1.742 60 35 64.1693 39.5649 871
3.484 1.742 60 40 65.8472 44.7595 872  3.484 1.742 60 40 65.8472 44.7595 872
3.484 1.742 60 45 67.6839 49.8182 873  3.484 1.742 60 45 67.6839 49.8182 873
3.484 1.742 60 50 69.6611 54.7461 874  3.484 1.742 60 50 69.6611 54.7461 874
3.484 1.742 60 55 71.761 59.5515 875  3.484 1.742 60 55 71.761 59.5515 875
3.484 1.742 60 60 73.9658 64.2454 876  3.484 1.742 60 60 73.9658 64.2454 876
3.484 1.742 60 65 76.2587 68.8408 877  3.484 1.742 60 65 76.2587 68.8408 877
3.484 1.742 60 70 78.6234 73.352 878  3.484 1.742 60 70 78.6234 73.352 878
3.484 1.742 60 75 81.044 77.7945 879  3.484 1.742 60 75 81.044 77.7945 879
3.484 1.742 60 80 83.5054 82.1843 880  3.484 1.742 60 80 83.5054 82.1843 880
3.484 1.742 60 85 85.9927 86.5377 881  3.484 1.742 60 85 85.9927 86.5377 881
3.484 1.742 60 90 88.4914 90.8712 882  3.484 1.742 60 90 88.4914 90.8712 882
3.484 1.742 60 95 90.9873 95.2014 883 90.9873 3.484 1.742 60 95 89.0127 95.2014 883
3.484 1.742 60 100 93.4661 99.5447 884 93.4661 3.484 1.742 60 100 86.5339 99.5447 884
3.484 1.742 60 105 95.9133 103.9172 885 95.9133 3.484 1.742 60 105 84.0867 103.9172 885
3.484 1.742 60 110 98.3144 108.3347 886 98.3144 3.484 1.742 60 110 81.6856 108.3347 886
3.484 1.742 60 115 100.6544 112.8122 887 100.6544 3.484 1.742 60 115 79.3456 112.8122 887
3.484 1.742 60 120 102.9181 117.3642 888 102.9181 3.484 1.742 60 120 77.0819 117.3642 888
3.484 1.742 60 125 105.0896 122.0038 889 105.0896 3.484 1.742 60 125 74.9104 122.0038 889
3.484 1.742 60 130 107.1527 126.7425 890 107.1527 3.484 1.742 60 130 72.8473 126.7425 890
3.484 1.742 60 135 109.0907 131.59 891 109.0907 3.484 1.742 60 135 70.9093 131.59 891
3.484 1.742 60 140 110.8866 136.5533 892 110.8866 3.484 1.742 60 140 69.1134 136.5533 892
3.484 1.742 60 145 112.5234 141.6362 893 112.5234 3.484 1.742 60 145 67.4766 141.6362 893
3.484 1.742 60 150 113.9843 146.8387 894 113.9843 3.484 1.742 60 150 66.0157 146.8387 894
3.484 1.742 60 155 115.2531 152.1564 895 115.2531 3.484 1.742 60 155 64.7469 152.1564 895
3.484 1.742 60 160 116.3148 157.5805 896 116.3148 3.484 1.742 60 160 63.6852 157.5805 896
3.484 1.742 60 165 117.1559 163.0972 897 117.1559 3.484 1.742 60 165 62.8441 163.0972 897
3.484 1.742 60 170 117.7652 168.688 898 117.7652 3.484 1.742 60 170 62.2348 168.688 898
3.484 1.742 60 175 118.1344 174.3306 899 118.1344 3.484 1.742 60 175 61.8656 174.3306 899
3.484 1.742 60 180 118.258 -180 900 118.258 3.484 1.742 60 180 61.742 -180 900
3.484 1.742 60 185 118.1344 -174.3306 901 118.1344 3.484 1.742 60 185 61.8656 -174.3306 901
3.484 1.742 60 190 117.7652 -168.688 902 117.7652 3.484 1.742 60 190 62.2348 -168.688 902
3.484 1.742 60 195 117.1559 -163.0972 903 117.1559 3.484 1.742 60 195 62.8441 -163.0972 903
3.484 1.742 60 200 116.3148 -157.5805 904 116.3148 3.484 1.742 60 200 63.6852 -157.5805 904
3.484 1.742 60 205 115.2531 -152.1564 905 115.2531 3.484 1.742 60 205 64.7469 -152.1564 905
3.484 1.742 60 210 113.9843 -146.8387 906 113.9843 3.484 1.742 60 210 66.0157 -146.8387 906
3.484 1.742 60 215 112.5234 -141.6362 907 112.5234 3.484 1.742 60 215 67.4766 -141.6362 907
3.484 1.742 60 220 110.8866 -136.5533 908 110.8866 3.484 1.742 60 220 69.1134 -136.5533 908
3.484 1.742 60 225 109.0907 -131.59 909 109.0907 3.484 1.742 60 225 70.9093 -131.59 909
3.484 1.742 60 230 107.1527 -126.7425 910 107.1527 3.484 1.742 60 230 72.8473 -126.7425 910
3.484 1.742 60 235 105.0896 -122.0038 911 105.0896 3.484 1.742 60 235 74.9104 -122.0038 911
3.484 1.742 60 240 102.9181 -117.3642 912 102.9181 3.484 1.742 60 240 77.0819 -117.3642 912
3.484 1.742 60 245 100.6544 -112.8122 913 100.6544 3.484 1.742 60 245 79.3456 -112.8122 913
3.484 1.742 60 250 98.3144 -108.3347 914 98.3144 3.484 1.742 60 250 81.6856 -108.3347 914
3.484 1.742 60 255 95.9133 -103.9172 915 95.9133 3.484 1.742 60 255 84.0867 -103.9172 915
3.484 1.742 60 260 93.4661 -99.5447 916 93.4661 3.484 1.742 60 260 86.5339 -99.5447 916
3.484 1.742 60 265 90.9873 -95.2014 917 90.9873 3.484 1.742 60 265 89.0127 -95.2014 917
3.484 1.742 60 270 88.4914 -90.8712 918  3.484 1.742 60 270 88.4914 -90.8712 918
3.484 1.742 60 275 85.9927 -86.5377 919  3.484 1.742 60 275 85.9927 -86.5377 919
3.484 1.742 60 280 83.5054 -82.1843 920  3.484 1.742 60 280 83.5054 -82.1843 920
3.484 1.742 60 285 81.044 -77.7945 921  3.484 1.742 60 285 81.044 -77.7945 921
3.484 1.742 60 290 78.6234 -73.352 922  3.484 1.742 60 290 78.6234 -73.352 922
3.484 1.742 60 295 76.2587 -68.8408 923  3.484 1.742 60 295 76.2587 -68.8408 923
3.484 1.742 60 300 73.9658 -64.2454 924  3.484 1.742 60 300 73.9658 -64.2454 924
3.484 1.742 60 305 71.761 -59.5515 925  3.484 1.742 60 305 71.761 -59.5515 925
3.484 1.742 60 310 69.6611 -54.7461 926  3.484 1.742 60 310 69.6611 -54.7461 926
3.484 1.742 60 315 67.6839 -49.8182 927  3.484 1.742 60 315 67.6839 -49.8182 927
3.484 1.742 60 320 65.8472 -44.7595 928  3.484 1.742 60 320 65.8472 -44.7595 928
3.484 1.742 60 325 64.1693 -39.5649 929  3.484 1.742 60 325 64.1693 -39.5649 929
3.484 1.742 60 330 62.6684 -34.2338 930  3.484 1.742 60 330 62.6684 -34.2338 930
3.484 1.742 60 335 61.3622 -28.7705 931  3.484 1.742 60 335 61.3622 -28.7705 931
3.484 1.742 60 340 60.2672 -23.1845 932  3.484 1.742 60 340 60.2672 -23.1845 932
3.484 1.742 60 345 59.3984 -17.4912 933  3.484 1.742 60 345 59.3984 -17.4912 933
3.484 1.742 60 350 58.7681 -11.7116 934  3.484 1.742 60 350 58.7681 -11.7116 934
3.484 1.742 60 355 58.386 -5.8714 935  3.484 1.742 60 355 58.386 -5.8714 935
              
3.484 1.742 65 0 63.258 0 936        
3.484 1.742 65 5 63.3611 5.593 937        
3.484 1.742 65 10 63.669 11.1665 938        
3.484 1.742 65 15 64.1778 16.7021 939        
3.484 1.742 65 20 64.8811 22.1832 940        
3.484 1.742 65 25 65.7703 27.5957 941        
3.484 1.742 65 30 66.835 32.9288 942        
3.484 1.742 65 35 68.0635 38.1746 943        
3.484 1.742 65 40 69.4426 43.329 944        
3.484 1.742 65 45 70.9587 48.3907 945        
3.484 1.742 65 50 72.5977 53.3617 946        
3.484 1.742 65 55 74.3451 58.2461 947        
3.484 1.742 65 60 76.1865 63.0505 948        
3.484 1.742 65 65 78.1076 67.7831 949        
3.484 1.742 65 70 80.0942 72.4535 950        
3.484 1.742 65 75 82.1325 77.0724 951        
3.484 1.742 65 80 84.2088 81.6511 952        
3.484 1.742 65 85 86.3095 86.2017 953        
3.484 1.742 65 90 88.4213 90.7364 954        
3.484 1.742 65 95 90.5309 95.2674 955        
3.484 1.742 65 100 92.6252 99.8071 956        
3.484 1.742 65 105 94.6909 104.3675 957        
3.484 1.742 65 110 96.7147 108.96 958        
3.484 1.742 65 115 98.6833 113.5957 959        
3.484 1.742 65 120 100.5831 118.2846 960        
3.484 1.742 65 125 102.4003 123.0357 961        
3.484 1.742 65 130 104.1214 127.8565 962        
3.484 1.742 65 135 105.7326 132.7529 963        
3.484 1.742 65 140 107.2201 137.7287 964        
3.484 1.742 65 145 108.5709 142.7853 965        
3.484 1.742 65 150 109.772 147.9217 966        
3.484 1.742 65 155 110.8115 153.1338 967        
3.484 1.742 65 160 111.6784 158.415 968        
3.484 1.742 65 165 112.3633 163.7554 969        
3.484 1.742 65 170 112.8584 169.1429 970        
3.484 1.742 65 175 113.1578 174.5631 971        
3.484 1.742 65 180 113.258 -180 972        
3.484 1.742 65 185 113.1578 -174.5631 973        
3.484 1.742 65 190 112.8584 -169.1429 974        
3.484 1.742 65 195 112.3633 -163.7554 975        
3.484 1.742 65 200 111.6784 -158.415 976        
3.484 1.742 65 205 110.8115 -153.1338 977        
3.484 1.742 65 210 109.772 -147.9217 978        
3.484 1.742 65 215 108.5709 -142.7853 979        
3.484 1.742 65 220 107.2201 -137.7287 980        
3.484 1.742 65 225 105.7326 -132.7529 981        
3.484 1.742 65 230 104.1214 -127.8565 982        
3.484 1.742 65 235 102.4003 -123.0357 983        
3.484 1.742 65 240 100.5831 -118.2846 984        
3.484 1.742 65 245 98.6833 -113.5957 985        
3.484 1.742 65 250 96.7147 -108.96 986        
3.484 1.742 65 255 94.6909 -104.3675 987        
3.484 1.742 65 260 92.6252 -99.8071 988        
3.484 1.742 65 265 90.5309 -95.2674 989        
3.484 1.742 65 270 88.4213 -90.7364 990        
3.484 1.742 65 275 86.3095 -86.2017 991        
3.484 1.742 65 280 84.2088 -81.6511 992        
3.484 1.742 65 285 82.1325 -77.0724 993        
3.484 1.742 65 290 80.0942 -72.4535 994        
3.484 1.742 65 295 78.1076 -67.7831 995        
3.484 1.742 65 300 76.1865 -63.0505 996        
3.484 1.742 65 305 74.3451 -58.2461 997        
3.484 1.742 65 310 72.5977 -53.3617 998        
3.484 1.742 65 315 70.9587 -48.3907 999        
3.484 1.742 65 320 69.4426 -43.329 1000        
3.484 1.742 65 325 68.0635 -38.1746 1001        
3.484 1.742 65 330 66.835 -32.9288 1002        
3.484 1.742 65 335 65.7703 -27.5957 1003        
3.484 1.742 65 340 64.8811 -22.1832 1004        
3.484 1.742 65 345 64.1778 -16.7021 1005        
3.484 1.742 65 350 63.669 -11.1665 1006        
3.484 1.742 65 355 63.3611 -5.593 1007        
              
3.484 1.742 70 0 68.258 0 1008        
3.484 1.742 70 5 68.3382 5.3785 1009        
3.484 1.742 70 10 68.578 10.7456 1010        
3.484 1.742 70 15 68.9748 16.0903 1011        
3.484 1.742 70 20 69.5242 21.4025 1012        
3.484 1.742 70 25 70.2207 26.6736 1013        
3.484 1.742 70 30 71.057 31.8964 1014        
3.484 1.742 70 35 72.025 37.0657 1015        
3.484 1.742 70 40 73.1153 42.1779 1016        
3.484 1.742 70 45 74.318 47.2317 1017        
3.484 1.742 70 50 75.6224 52.2273 1018        
3.484 1.742 70 55 77.0177 57.1666 1019        
3.484 1.742 70 60 78.4925 62.0531 1020        
3.484 1.742 70 65 80.0352 66.8916 1021        
3.484 1.742 70 70 81.6344 71.688 1022        
3.484 1.742 70 75 83.2783 76.449 1023        
3.484 1.742 70 80 84.9555 81.1819 1024        
3.484 1.742 70 85 86.6543 85.8949 1025        
3.484 1.742 70 90 88.3631 90.596 1026        
3.484 1.742 70 95 90.0704 95.2936 1027        
3.484 1.742 70 100 91.7649 99.996 1028        
3.484 1.742 70 105 93.4349 104.7114 1029        
3.484 1.742 70 110 95.0692 109.4476 1030        
3.484 1.742 70 115 96.6562 114.2117 1031        
3.484 1.742 70 120 98.1847 119.0102 1032        
3.484 1.742 70 125 99.6436 123.8489 1033        
3.484 1.742 70 130 101.0216 128.7322 1034        
3.484 1.742 70 135 102.308 133.6635 1035        
3.484 1.742 70 140 103.4924 138.6447 1036        
3.484 1.742 70 145 104.5646 143.6763 1037        
3.484 1.742 70 150 105.5153 148.7569 1038        
3.484 1.742 70 155 106.3358 153.8838 1039        
3.484 1.742 70 160 107.0184 159.0522 1040        
3.484 1.742 70 165 107.5566 164.2561 1041        
3.484 1.742 70 170 107.9449 169.4879 1042        
3.484 1.742 70 175 108.1795 174.739 1043        
3.484 1.742 70 180 108.258 -180 1044        
3.484 1.742 70 185 108.1795 -174.739 1045        
3.484 1.742 70 190 107.9449 -169.4879 1046        
3.484 1.742 70 195 107.5566 -164.2561 1047        
3.484 1.742 70 200 107.0184 -159.0522 1048        
3.484 1.742 70 205 106.3358 -153.8838 1049        
3.484 1.742 70 210 105.5153 -148.7569 1050        
3.484 1.742 70 215 104.5646 -143.6763 1051        
3.484 1.742 70 220 103.4924 -138.6447 1052        
3.484 1.742 70 225 102.308 -133.6635 1053        
3.484 1.742 70 230 101.0216 -128.7322 1054        
3.484 1.742 70 235 99.6436 -123.8489 1055        
3.484 1.742 70 240 98.1847 -119.0102 1056        
3.484 1.742 70 245 96.6562 -114.2117 1057        
3.484 1.742 70 250 95.0692 -109.4476 1058        
3.484 1.742 70 255 93.4349 -104.7114 1059        
3.484 1.742 70 260 91.7649 -99.996 1060        
3.484 1.742 70 265 90.0704 -95.2936 1061        
3.484 1.742 70 270 88.3631 -90.596 1062        
3.484 1.742 70 275 86.6543 -85.8949 1063        
3.484 1.742 70 280 84.9555 -81.1819 1064        
3.484 1.742 70 285 83.2783 -76.449 1065        
3.484 1.742 70 290 81.6344 -71.688 1066        
3.484 1.742 70 295 80.0352 -66.8916 1067        
3.484 1.742 70 300 78.4925 -62.0531 1068        
3.484 1.742 70 305 77.0177 -57.1666 1069        
3.484 1.742 70 310 75.6224 -52.2273 1070        
3.484 1.742 70 315 74.318 -47.2317 1071        
3.484 1.742 70 320 73.1153 -42.1779 1072        
3.484 1.742 70 325 72.025 -37.0657 1073        
3.484 1.742 70 330 71.057 -31.8964 1074        
3.484 1.742 70 335 70.2207 -26.6736 1075        
3.484 1.742 70 340 69.5242 -21.4025 1076        
3.484 1.742 70 345 68.9748 -16.0903 1077        
3.484 1.742 70 350 68.578 -10.7456 1078        
3.484 1.742 70 355 68.3382 -5.3785 1079        
              
3.484 1.742 75 0 73.258 0 1080        
3.484 1.742 75 5 73.3169 5.2179 1081        
3.484 1.742 75 10 73.493 10.4297 1082        
3.484 1.742 75 15 73.7847 15.6296 1083        
3.484 1.742 75 20 74.1892 20.8121 1084        
3.484 1.742 75 25 74.7029 25.9724 1085        
3.484 1.742 75 30 75.321 31.1066 1086        
3.484 1.742 75 35 76.0381 36.2113 1087        
3.484 1.742 75 40 76.8478 41.2844 1088        
3.484 1.742 75 45 77.7433 46.3248 1089        
3.484 1.742 75 50 78.7172 51.3321 1090        
3.484 1.742 75 55 79.7614 56.3071 1091        
3.484 1.742 75 60 80.8678 61.2513 1092        
3.484 1.742 75 65 82.0277 66.1674 1093        
3.484 1.742 75 70 83.2323 71.0582 1094        
3.484 1.742 75 75 84.4727 75.9276 1095        
3.484 1.742 75 80 85.7398 80.7798 1096        
3.484 1.742 75 85 87.0244 85.6194 1097        
3.484 1.742 75 90 88.3174 90.451 1098        
3.484 1.742 75 95 89.6095 95.2797 1099        
3.484 1.742 75 100 90.8915 100.1102 1100        
3.484 1.742 75 105 92.1544 104.9475 1101        
3.484 1.742 75 110 93.3891 109.7961 1102        
3.484 1.742 75 115 94.5867 114.66 1103        
3.484 1.742 75 120 95.7384 119.5431 1104        
3.484 1.742 75 125 96.8356 124.4485 1105        
3.484 1.742 75 130 97.87 129.3786 1106        
3.484 1.742 75 135 98.8336 134.3352 1107        
3.484 1.742 75 140 99.7188 139.3191 1108        
3.484 1.742 75 145 100.5184 144.3304 1109        
3.484 1.742 75 150 101.2259 149.3683 1110        
3.484 1.742 75 155 101.8352 154.431 1111        
3.484 1.742 75 160 102.3413 159.5158 1112        
3.484 1.742 75 165 102.7397 164.6195 1113        
3.484 1.742 75 170 103.0268 169.7378 1114        
3.484 1.742 75 175 103.2001 174.8663 1115        
3.484 1.742 75 180 103.258 -180 1116        
3.484 1.742 75 185 103.2001 -174.8663 1117        
3.484 1.742 75 190 103.0268 -169.7378 1118        
3.484 1.742 75 195 102.7397 -164.6195 1119        
3.484 1.742 75 200 102.3413 -159.5158 1120        
3.484 1.742 75 205 101.8352 -154.431 1121        
3.484 1.742 75 210 101.2259 -149.3683 1122        
3.484 1.742 75 215 100.5184 -144.3304 1123        
3.484 1.742 75 220 99.7188 -139.3191 1124        
3.484 1.742 75 225 98.8336 -134.3352 1125        
3.484 1.742 75 230 97.87 -129.3786 1126        
3.484 1.742 75 235 96.8356 -124.4485 1127        
3.484 1.742 75 240 95.7384 -119.5431 1128        
3.484 1.742 75 245 94.5867 -114.66 1129        
3.484 1.742 75 250 93.3891 -109.7961 1130        
3.484 1.742 75 255 92.1544 -104.9475 1131        
3.484 1.742 75 260 90.8915 -100.1102 1132        
3.484 1.742 75 265 89.6095 -95.2797 1133        
3.484 1.742 75 270 88.3174 -90.451 1134        
3.484 1.742 75 275 87.0244 -85.6194 1135        
3.484 1.742 75 280 85.7398 -80.7798 1136        
3.484 1.742 75 285 84.4727 -75.9276 1137        
3.484 1.742 75 290 83.2323 -71.0582 1138        
3.484 1.742 75 295 82.0277 -66.1674 1139        
3.484 1.742 75 300 80.8678 -61.2513 1140        
3.484 1.742 75 305 79.7614 -56.3071 1141        
3.484 1.742 75 310 78.7172 -51.3321 1142        
3.484 1.742 75 315 77.7433 -46.3248 1143        
3.484 1.742 75 320 76.8478 -41.2844 1144        
3.484 1.742 75 325 76.0381 -36.2113 1145        
3.484 1.742 75 330 75.321 -31.1066 1146        
3.484 1.742 75 335 74.7029 -25.9724 1147        
3.484 1.742 75 340 74.1892 -20.8121 1148        
3.484 1.742 75 345 73.7847 -15.6296 1149        
3.484 1.742 75 350 73.493 -10.4297 1150        
3.484 1.742 75 355 73.3169 -5.2179 1151        
              
3.484 1.742 80 0 78.258 0 1152        
3.484 1.742 80 5 78.2966 5.1041 1153        
3.484 1.742 80 10 78.4123 10.2055 1154        
3.484 1.742 80 15 78.6039 15.3017 1155        
3.484 1.742 80 20 78.8699 20.3904 1156        
3.484 1.742 80 25 79.2081 25.4694 1157        
3.484 1.742 80 30 79.6156 30.5368 1158        
3.484 1.742 80 35 80.0892 35.5911 1159        
3.484 1.742 80 40 80.6249 40.6313 1160        
3.484 1.742 80 45 81.2184 45.6566 1161        
3.484 1.742 80 50 81.8651 50.6668 1162        
3.484 1.742 80 55 82.5598 55.6621 1163        
3.484 1.742 80 60 83.2971 60.6431 1164        
3.484 1.742 80 65 84.0713 65.6106 1165        
3.484 1.742 80 70 84.8766 70.5661 1166        
3.484 1.742 80 75 85.7068 75.5111 1167        
3.484 1.742 80 80 86.5558 80.4475 1168        
3.484 1.742 80 85 87.4171 85.3772 1169        
3.484 1.742 80 90 88.2845 90.3026 1170        
3.484 1.742 80 95 89.1514 95.2258 1171        
3.484 1.742 80 100 90.0116 100.1491 1172        
3.484 1.742 80 105 90.8586 105.0746 1173        
3.484 1.742 80 110 91.6863 110.0046 1174        
3.484 1.742 80 115 92.4883 114.9408 1175        
3.484 1.742 80 120 93.2588 119.885 1176        
3.484 1.742 80 125 93.992 124.8386 1177        
3.484 1.742 80 130 94.6823 129.8026 1178        
3.484 1.742 80 135 95.3244 134.7779 1179        
3.484 1.742 80 140 95.9133 139.7647 1180        
3.484 1.742 80 145 96.4445 144.7632 1181        
3.484 1.742 80 150 96.9139 149.7728 1182        
3.484 1.742 80 155 97.3176 154.7929 1183        
3.484 1.742 80 160 97.6524 159.8222 1184        
3.484 1.742 80 165 97.9157 164.8594 1185        
3.484 1.742 80 170 98.1054 169.9028 1186        
3.484 1.742 80 175 98.2198 174.9503 1187        
3.484 1.742 80 180 98.258 -180 1188        
3.484 1.742 80 185 98.2198 -174.9503 1189        
3.484 1.742 80 190 98.1054 -169.9028 1190        
3.484 1.742 80 195 97.9157 -164.8594 1191        
3.484 1.742 80 200 97.6524 -159.8222 1192        
3.484 1.742 80 205 97.3176 -154.7929 1193        
3.484 1.742 80 210 96.9139 -149.7728 1194        
3.484 1.742 80 215 96.4445 -144.7632 1195        
3.484 1.742 80 220 95.9133 -139.7647 1196        
3.484 1.742 80 225 95.3244 -134.7779 1197        
3.484 1.742 80 230 94.6823 -129.8026 1198        
3.484 1.742 80 235 93.992 -124.8386 1199        
3.484 1.742 80 240 93.2588 -119.885 1200        
3.484 1.742 80 245 92.4883 -114.9408 1201        
3.484 1.742 80 250 91.6863 -110.0046 1202        
3.484 1.742 80 255 90.8586 -105.0746 1203        
3.484 1.742 80 260 90.0116 -100.1491 1204        
3.484 1.742 80 265 89.1514 -95.2258 1205        
3.484 1.742 80 270 88.2845 -90.3026 1206        
3.484 1.742 80 275 87.4171 -85.3772 1207        
3.484 1.742 80 280 86.5558 -80.4475 1208        
3.484 1.742 80 285 85.7068 -75.5111 1209        
3.484 1.742 80 290 84.8766 -70.5661 1210        
3.484 1.742 80 295 84.0713 -65.6106 1211        
3.484 1.742 80 300 83.2971 -60.6431 1212        
3.484 1.742 80 305 82.5598 -55.6621 1213        
3.484 1.742 80 310 81.8651 -50.6668 1214        
3.484 1.742 80 315 81.2184 -45.6566 1215        
3.484 1.742 80 320 80.6249 -40.6313 1216        
3.484 1.742 80 325 80.0892 -35.5911 1217        
3.484 1.742 80 330 79.6156 -30.5368 1218        
3.484 1.742 80 335 79.2081 -25.4694 1219        
3.484 1.742 80 340 78.8699 -20.3904 1220        
3.484 1.742 80 345 78.6039 -15.3017 1221        
3.484 1.742 80 350 78.4123 -10.2055 1222        
3.484 1.742 80 355 78.2966 -5.1041 1223        
              
3.484 1.742 85 0 83.258 0 1224        
3.484 1.742 85 5 83.2771 5.0324 1225        
3.484 1.742 85 10 83.3344 10.0641 1226        
3.484 1.742 85 15 83.4292 15.0944 1227        
3.484 1.742 85 20 83.561 20.1227 1228        
3.484 1.742 85 25 83.7287 25.1485 1229        
3.484 1.742 85 30 83.9309 30.1712 1230        
3.484 1.742 85 35 84.1661 35.1904 1231        
3.484 1.742 85 40 84.4325 40.2059 1232        
3.484 1.742 85 45 84.728 45.2172 1233        
3.484 1.742 85 50 85.0504 50.2244 1234        
3.484 1.742 85 55 85.397 55.2275 1235        
3.484 1.742 85 60 85.7654 60.2264 1236        
3.484 1.742 85 65 86.1526 65.2215 1237        
3.484 1.742 85 70 86.5557 70.2131 1238        
3.484 1.742 85 75 86.9716 75.2014 1239        
3.484 1.742 85 80 87.3973 80.187 1240        
3.484 1.742 85 85 87.8294 85.1703 1241        
3.484 1.742 85 90 88.2646 90.1519 1242        
3.484 1.742 85 95 88.6998 95.1323 1243        
3.484 1.742 85 100 89.1316 100.1122 1244        
3.484 1.742 85 105 89.5567 105.0922 1245        
3.484 1.742 85 110 89.972 110.0726 1246        
3.484 1.742 85 115 90.3743 115.0541 1247        
3.484 1.742 85 120 90.7606 120.0371 1248        
3.484 1.742 85 125 91.1279 125.022 1249        
3.484 1.742 85 130 91.4734 130.009 1250        
3.484 1.742 85 135 91.7946 134.9984 1251        
3.484 1.742 85 140 92.089 139.9903 1252        
3.484 1.742 85 145 92.3542 144.9847 1253        
3.484 1.742 85 150 92.5884 149.9815 1254        
3.484 1.742 85 155 92.7897 154.9807 1255        
3.484 1.742 85 160 92.9565 159.9819 1256        
3.484 1.742 85 165 93.0877 164.9848 1257        
3.484 1.742 85 170 93.1821 169.9891 1258        
3.484 1.742 85 175 93.239 174.9943 1259        
3.484 1.742 85 180 93.258 -180 1260        
3.484 1.742 85 185 93.239 -174.9943 1261        
3.484 1.742 85 190 93.1821 -169.9891 1262        
3.484 1.742 85 195 93.0877 -164.9848 1263        
3.484 1.742 85 200 92.9565 -159.9819 1264        
3.484 1.742 85 205 92.7897 -154.9807 1265        
3.484 1.742 85 210 92.5884 -149.9815 1266        
3.484 1.742 85 215 92.3542 -144.9847 1267        
3.484 1.742 85 220 92.089 -139.9903 1268        
3.484 1.742 85 225 91.7946 -134.9984 1269        
3.484 1.742 85 230 91.4734 -130.009 1270        
3.484 1.742 85 235 91.1279 -125.022 1271        
3.484 1.742 85 240 90.7606 -120.0371 1272        
3.484 1.742 85 245 90.3743 -115.0541 1273        
3.484 1.742 85 250 89.972 -110.0726 1274        
3.484 1.742 85 255 89.5567 -105.0922 1275        
3.484 1.742 85 260 89.1316 -100.1122 1276        
3.484 1.742 85 265 88.6998 -95.1323 1277        
3.484 1.742 85 270 88.2646 -90.1519 1278        
3.484 1.742 85 275 87.8294 -85.1703 1279        
3.484 1.742 85 280 87.3973 -80.187 1280        
3.484 1.742 85 285 86.9716 -75.2014 1281        
3.484 1.742 85 290 86.5557 -70.2131 1282        
3.484 1.742 85 295 86.1526 -65.2215 1283        
3.484 1.742 85 300 85.7654 -60.2264 1284        
3.484 1.742 85 305 85.397 -55.2275 1285        
3.484 1.742 85 310 85.0504 -50.2244 1286        
3.484 1.742 85 315 84.728 -45.2172 1287        
3.484 1.742 85 320 84.4325 -40.2059 1288        
3.484 1.742 85 325 84.1661 -35.1904 1289        
3.484 1.742 85 330 83.9309 -30.1712 1290        
3.484 1.742 85 335 83.7287 -25.1485 1291        
3.484 1.742 85 340 83.561 -20.1227 1292        
3.484 1.742 85 345 83.4292 -15.0944 1293        
3.484 1.742 85 350 83.3344 -10.0641 1294        
3.484 1.742 85 355 83.2771 -5.0324 1295        
              
3.484 1.742 90 0 88.258 0 1296        
3.484 1.742 90 5 88.258 5 1297        
3.484 1.742 90 10 88.258 10 1298        
3.484 1.742 90 15 88.258 15 1299        
3.484 1.742 90 20 88.258 20 1300        
3.484 1.742 90 25 88.258 25 1301        
3.484 1.742 90 30 88.258 30 1302        
3.484 1.742 90 35 88.258 35 1303        
3.484 1.742 90 40 88.258 40 1304        
3.484 1.742 90 45 88.258 45 1305        
3.484 1.742 90 50 88.258 50 1306        
3.484 1.742 90 55 88.258 55 1307        
3.484 1.742 90 60 88.258 60 1308        
3.484 1.742 90 65 88.258 65 1309        
3.484 1.742 90 70 88.258 70 1310        
3.484 1.742 90 75 88.258 75 1311        
3.484 1.742 90 80 88.258 80 1312        
3.484 1.742 90 85 88.258 85 1313        
3.484 1.742 90 90 88.258 90 1314        
3.484 1.742 90 95 88.258 95 1315        
3.484 1.742 90 100 88.258 100 1316        
3.484 1.742 90 105 88.258 105 1317        
3.484 1.742 90 110 88.258 110 1318        
3.484 1.742 90 115 88.258 115 1319        
3.484 1.742 90 120 88.258 120 1320        
3.484 1.742 90 125 88.258 125 1321        
3.484 1.742 90 130 88.258 130 1322        
3.484 1.742 90 135 88.258 135 1323        
3.484 1.742 90 140 88.258 140 1324        
3.484 1.742 90 145 88.258 145 1325        
3.484 1.742 90 150 88.258 150 1326        
3.484 1.742 90 155 88.258 155 1327        
3.484 1.742 90 160 88.258 160 1328        
3.484 1.742 90 165 88.258 165 1329        
3.484 1.742 90 170 88.258 170 1330        
3.484 1.742 90 175 88.258 175 1331        
3.484 1.742 90 180 88.258 -180 1332        
3.484 1.742 90 185 88.258 -175 1333        
3.484 1.742 90 190 88.258 -170 1334        
3.484 1.742 90 195 88.258 -165 1335        
3.484 1.742 90 200 88.258 -160 1336        
3.484 1.742 90 205 88.258 -155 1337        
3.484 1.742 90 210 88.258 -150 1338        
3.484 1.742 90 215 88.258 -145 1339        
3.484 1.742 90 220 88.258 -140 1340        
3.484 1.742 90 225 88.258 -135 1341        
3.484 1.742 90 230 88.258 -130 1342        
3.484 1.742 90 235 88.258 -125 1343        
3.484 1.742 90 240 88.258 -120 1344        
3.484 1.742 90 245 88.258 -115 1345        
3.484 1.742 90 250 88.258 -110 1346        
3.484 1.742 90 255 88.258 -105 1347        
3.484 1.742 90 260 88.258 -100 1348        
3.484 1.742 90 265 88.258 -95 1349        
3.484 1.742 90 270 88.258 -90 1350        
3.484 1.742 90 275 88.258 -85 1351        
3.484 1.742 90 280 88.258 -80 1352        
3.484 1.742 90 285 88.258 -75 1353        
3.484 1.742 90 290 88.258 -70 1354        
3.484 1.742 90 295 88.258 -65 1355        
3.484 1.742 90 300 88.258 -60 1356        
3.484 1.742 90 305 88.258 -55 1357        
3.484 1.742 90 310 88.258 -50 1358        
3.484 1.742 90 315 88.258 -45 1359        
3.484 1.742 90 320 88.258 -40 1360        
3.484 1.742 90 325 88.258 -35 1361        
3.484 1.742 90 330 88.258 -30 1362        
3.484 1.742 90 335 88.258 -25 1363        
3.484 1.742 90 340 88.258 -20 1364        
3.484 1.742 90 345 88.258 -15 1365        
3.484 1.742 90 350 88.258 -10 1366        
3.484 1.742 90 355 88.258 -5 1367        
