
test_ang_tranf.exe: 2016- 5-18 15:28:30
#2theta theta omega gamma alpha beta
  3.4840   1.7420  91.0000   0.0000   2.7420 180.0000        0
  3.4840   1.7420  91.0000   5.0000   5.7020 118.7394        1
  3.4840   1.7420  91.0000  10.0000  10.3680 105.3279        2
  3.4840   1.7420  91.0000  15.0000  15.2468 100.3494        3
  3.4840   1.7420  91.0000  20.0000  20.1848  97.7930        4
  3.4840   1.7420  91.0000  25.0000  25.1470  96.2421        5
  3.4840   1.7420  91.0000  30.0000  30.1215  95.2022        6
  3.4840   1.7420  91.0000  35.0000  35.1031  94.4566        7
  3.4840   1.7420  91.0000  40.0000  40.0892  93.8962        8
  3.4840   1.7420  91.0000  45.0000  45.0781  93.4597        9
  3.4840   1.7420  91.0000  50.0000  50.0692  93.1104       10
  3.4840   1.7420  91.0000  55.0000  55.0617  92.8248       11
  3.4840   1.7420  91.0000  60.0000  60.0554  92.5874       12
  3.4840   1.7420  91.0000  65.0000  65.0499  92.3873       13
  3.4840   1.7420  91.0000  70.0000  70.0452  92.2169       14
  3.4840   1.7420  91.0000  75.0000  75.0409  92.0708       15
  3.4840   1.7420  91.0000  80.0000  80.0371  91.9447       16
  3.4840   1.7420  91.0000  85.0000  85.0336  91.8358       17
  3.4840   1.7420  91.0000  90.0000  89.9696 268.2583       18
  3.4840   1.7420  91.0000  95.0000  84.9726 268.3390       19
  3.4840   1.7420  91.0000 100.0000  79.9753 268.4076       20
  3.4840   1.7420  91.0000 105.0000  74.9780 268.4646       21
  3.4840   1.7420  91.0000 110.0000  69.9805 268.5102       22
  3.4840   1.7420  91.0000 115.0000  64.9829 268.5442       23
  3.4840   1.7420  91.0000 120.0000  59.9852 268.5658       24
  3.4840   1.7420  91.0000 125.0000  54.9875 268.5735       25
  3.4840   1.7420  91.0000 130.0000  49.9899 268.5650       26
  3.4840   1.7420  91.0000 135.0000  44.9922 268.5363       27
  3.4840   1.7420  91.0000 140.0000  39.9947 268.4816       28
  3.4840   1.7420  91.0000 145.0000  34.9973 268.3909       29
  3.4840   1.7420  91.0000 150.0000  30.0002 268.2480       30
  3.4840   1.7420  91.0000 155.0000  25.0036 268.0226       31
  3.4840   1.7420  91.0000 160.0000  20.0078 267.6546       32
  3.4840   1.7420  91.0000 165.0000  15.0139 267.0030       33
  3.4840   1.7420  91.0000 170.0000  10.0246 265.6461       34
  3.4840   1.7420  91.0000 175.0000   5.0533 261.5020       35
  3.4840   1.7420  91.0000 180.0000   0.7420 180.0000       36
  3.4840   1.7420  91.0000 185.0000   5.0533  98.4980       37
  3.4840   1.7420  91.0000 190.0000  10.0246  94.3539       38
  3.4840   1.7420  91.0000 195.0000  15.0139  92.9970       39
  3.4840   1.7420  91.0000 200.0000  20.0078  92.3454       40
  3.4840   1.7420  91.0000 205.0000  25.0036  91.9774       41
  3.4840   1.7420  91.0000 210.0000  30.0002  91.7520       42
  3.4840   1.7420  91.0000 215.0000  34.9973  91.6091       43
  3.4840   1.7420  91.0000 220.0000  39.9947  91.5184       44
  3.4840   1.7420  91.0000 225.0000  44.9922  91.4637       45
  3.4840   1.7420  91.0000 230.0000  49.9899  91.4350       46
  3.4840   1.7420  91.0000 235.0000  54.9875  91.4265       47
  3.4840   1.7420  91.0000 240.0000  59.9852  91.4342       48
  3.4840   1.7420  91.0000 245.0000  64.9829  91.4558       49
  3.4840   1.7420  91.0000 250.0000  69.9805  91.4898       50
  3.4840   1.7420  91.0000 255.0000  74.9780  91.5354       51
  3.4840   1.7420  91.0000 260.0000  79.9753  91.5924       52
  3.4840   1.7420  91.0000 265.0000  84.9726  91.6610       53
  3.4840   1.7420  91.0000 270.0000  89.9696  91.7417       54
  3.4840   1.7420  91.0000 275.0000  85.0336 268.1642       55
  3.4840   1.7420  91.0000 280.0000  80.0371 268.0553       56
  3.4840   1.7420  91.0000 285.0000  75.0409 267.9292       57
  3.4840   1.7420  91.0000 290.0000  70.0452 267.7831       58
  3.4840   1.7420  91.0000 295.0000  65.0499 267.6127       59
  3.4840   1.7420  91.0000 300.0000  60.0554 267.4126       60
  3.4840   1.7420  91.0000 305.0000  55.0617 267.1752       61
  3.4840   1.7420  91.0000 310.0000  50.0692 266.8896       62
  3.4840   1.7420  91.0000 315.0000  45.0781 266.5403       63
  3.4840   1.7420  91.0000 320.0000  40.0892 266.1038       64
  3.4840   1.7420  91.0000 325.0000  35.1031 265.5434       65
  3.4840   1.7420  91.0000 330.0000  30.1215 264.7978       66
  3.4840   1.7420  91.0000 335.0000  25.1470 263.7579       67
  3.4840   1.7420  91.0000 340.0000  20.1848 262.2070       68
  3.4840   1.7420  91.0000 345.0000  15.2468 259.6506       69
  3.4840   1.7420  91.0000 350.0000  10.3680 254.6721       70
  3.4840   1.7420  91.0000 355.0000   5.7020 241.2606       71
  3.4840   1.7420  96.0000   0.0000   7.7420 180.0000       72
  3.4840   1.7420  96.0000   5.0000   9.2123 147.0329       73
  3.4840   1.7420  96.0000  10.0000  12.6352 127.4879       74
  3.4840   1.7420  96.0000  15.0000  16.8607 116.8836       75
  3.4840   1.7420  96.0000  20.0000  21.4189 110.5874       76
  3.4840   1.7420  96.0000  25.0000  26.1363 106.4746       77
  3.4840   1.7420  96.0000  30.0000  30.9401 103.5792       78
  3.4840   1.7420  96.0000  35.0000  35.7954 101.4209       79
  3.4840   1.7420  96.0000  40.0000  40.6838  99.7386       80
  3.4840   1.7420  96.0000  45.0000  45.5946  98.3796       81
  3.4840   1.7420  96.0000  50.0000  50.5211  97.2487       82
  3.4840   1.7420  96.0000  55.0000  55.4592  96.2838       83
  3.4840   1.7420  96.0000  60.0000  60.4058  95.4424       84
  3.4840   1.7420  96.0000  65.0000  65.3590  94.6943       85
  3.4840   1.7420  96.0000  70.0000  70.3173  94.0174       86
  3.4840   1.7420  96.0000  75.0000  75.2795  93.3949       87
  3.4840   1.7420  96.0000  80.0000  80.2448  92.8135       88
  3.4840   1.7420  96.0000  85.0000  85.2125  92.2624       89
  3.4840   1.7420  96.0000  90.0000  89.8179 268.2675       90
  3.4840   1.7420  96.0000  95.0000  84.8470 268.7845       91
  3.4840   1.7420  96.0000 100.0000  79.8751 269.2963       92
  3.4840   1.7420  96.0000 105.0000  74.9027 269.8106       93
  3.4840   1.7420  96.0000 110.0000  69.9301 270.3356       94
  3.4840   1.7420  96.0000 115.0000  64.9578 270.8805       95
  3.4840   1.7420  96.0000 120.0000  59.9862 271.4564       96
  3.4840   1.7420  96.0000 125.0000  55.0160 272.0771       97
  3.4840   1.7420  96.0000 130.0000  50.0478 272.7610       98
  3.4840   1.7420  96.0000 135.0000  45.0827 273.5337       99
  3.4840   1.7420  96.0000 140.0000  40.1221 274.4325      100
  3.4840   1.7420  96.0000 145.0000  35.1681 275.5148      101
  3.4840   1.7420  96.0000 150.0000  30.2244 276.8742      102
  3.4840   1.7420  96.0000 155.0000  25.2971 278.6760      103
  3.4840   1.7420  96.0000 160.0000  20.3986 281.2413      104
  3.4840   1.7420  96.0000 165.0000  15.5562 285.2826      105
  3.4840   1.7420  96.0000 170.0000  10.8456 292.7156      106
  3.4840   1.7420  96.0000 175.0000   6.5578 310.2889      107
  3.4840   1.7420  96.0000 180.0000   4.2580   0.0000      108
  3.4840   1.7420  96.0000 185.0000   6.5578  49.7111      109
  3.4840   1.7420  96.0000 190.0000  10.8456  67.2844      110
  3.4840   1.7420  96.0000 195.0000  15.5562  74.7174      111
  3.4840   1.7420  96.0000 200.0000  20.3986  78.7587      112
  3.4840   1.7420  96.0000 205.0000  25.2971  81.3240      113
  3.4840   1.7420  96.0000 210.0000  30.2244  83.1258      114
  3.4840   1.7420  96.0000 215.0000  35.1681  84.4852      115
  3.4840   1.7420  96.0000 220.0000  40.1221  85.5675      116
  3.4840   1.7420  96.0000 225.0000  45.0827  86.4663      117
  3.4840   1.7420  96.0000 230.0000  50.0478  87.2390      118
  3.4840   1.7420  96.0000 235.0000  55.0160  87.9229      119
  3.4840   1.7420  96.0000 240.0000  59.9862  88.5436      120
  3.4840   1.7420  96.0000 245.0000  64.9578  89.1195      121
  3.4840   1.7420  96.0000 250.0000  69.9301  89.6644      122
  3.4840   1.7420  96.0000 255.0000  74.9027  90.1894      123
  3.4840   1.7420  96.0000 260.0000  79.8751  90.7037      124
  3.4840   1.7420  96.0000 265.0000  84.8470  91.2155      125
  3.4840   1.7420  96.0000 270.0000  89.8179  91.7325      126
  3.4840   1.7420  96.0000 275.0000  85.2125 267.7376      127
  3.4840   1.7420  96.0000 280.0000  80.2448 267.1865      128
  3.4840   1.7420  96.0000 285.0000  75.2795 266.6051      129
  3.4840   1.7420  96.0000 290.0000  70.3173 265.9826      130
  3.4840   1.7420  96.0000 295.0000  65.3590 265.3057      131
  3.4840   1.7420  96.0000 300.0000  60.4058 264.5576      132
  3.4840   1.7420  96.0000 305.0000  55.4592 263.7162      133
  3.4840   1.7420  96.0000 310.0000  50.5211 262.7513      134
  3.4840   1.7420  96.0000 315.0000  45.5946 261.6204      135
  3.4840   1.7420  96.0000 320.0000  40.6838 260.2614      136
  3.4840   1.7420  96.0000 325.0000  35.7954 258.5791      137
  3.4840   1.7420  96.0000 330.0000  30.9401 256.4208      138
  3.4840   1.7420  96.0000 335.0000  26.1363 253.5254      139
  3.4840   1.7420  96.0000 340.0000  21.4189 249.4126      140
  3.4840   1.7420  96.0000 345.0000  16.8607 243.1164      141
  3.4840   1.7420  96.0000 350.0000  12.6352 232.5121      142
  3.4840   1.7420  96.0000 355.0000   9.2123 212.9671      143
  3.4840   1.7420 101.0000   0.0000  12.7420 180.0000      144
  3.4840   1.7420 101.0000   5.0000  13.6781 158.3828      145
  3.4840   1.7420 101.0000  10.0000  16.1644 141.4307      146
  3.4840   1.7420 101.0000  15.0000  19.6200 129.6063      147
  3.4840   1.7420 101.0000  20.0000  23.6231 121.4471      148
  3.4840   1.7420 101.0000  25.0000  27.9393 115.6332      149
  3.4840   1.7420 101.0000  30.0000  32.4435 111.3157      150
  3.4840   1.7420 101.0000  35.0000  37.0671 107.9810      151
  3.4840   1.7420 101.0000  40.0000  41.7702 105.3146      152
  3.4840   1.7420 101.0000  45.0000  46.5285 103.1175      153
  3.4840   1.7420 101.0000  50.0000  51.3262 101.2592      154
  3.4840   1.7420 101.0000  55.0000  56.1530  99.6509      155
  3.4840   1.7420 101.0000  60.0000  61.0015  98.2300      156
  3.4840   1.7420 101.0000  65.0000  65.8667  96.9510      157
  3.4840   1.7420 101.0000  70.0000  70.7445  95.7797      158
  3.4840   1.7420 101.0000  75.0000  75.6322  94.6897      159
  3.4840   1.7420 101.0000  80.0000  80.5272  93.6596      160
  3.4840   1.7420 101.0000  85.0000  85.4278  92.6716      161
  3.4840   1.7420 101.0000  90.0000  89.6677 268.2900      162
  3.4840   1.7420 101.0000  95.0000  84.7607 269.2395      163
  3.4840   1.7420 101.0000 100.0000  79.8527 270.1908      164
  3.4840   1.7420 101.0000 105.0000  74.9450 271.1583      165
  3.4840   1.7420 101.0000 110.0000  70.0389 272.1578      166
  3.4840   1.7420 101.0000 115.0000  65.1362 273.2072      167
  3.4840   1.7420 101.0000 120.0000  60.2387 274.3285      168
  3.4840   1.7420 101.0000 125.0000  55.3488 275.5495      169
  3.4840   1.7420 101.0000 130.0000  50.4697 276.9069      170
  3.4840   1.7420 101.0000 135.0000  45.6055 278.4517      171
  3.4840   1.7420 101.0000 140.0000  40.7625 280.2568      172
  3.4840   1.7420 101.0000 145.0000  35.9499 282.4322      173
  3.4840   1.7420 101.0000 150.0000  31.1826 285.1513      174
  3.4840   1.7420 101.0000 155.0000  26.4857 288.7035      175
  3.4840   1.7420 101.0000 160.0000  21.9053 293.6032      176
  3.4840   1.7420 101.0000 165.0000  17.5334 300.8271      177
  3.4840   1.7420 101.0000 170.0000  13.5740 312.3087      178
  3.4840   1.7420 101.0000 175.0000  10.5046 331.4562      179
  3.4840   1.7420 101.0000 180.0000   9.2580   0.0000      180
  3.4840   1.7420 101.0000 185.0000  10.5046  28.5438      181
  3.4840   1.7420 101.0000 190.0000  13.5740  47.6913      182
  3.4840   1.7420 101.0000 195.0000  17.5334  59.1729      183
  3.4840   1.7420 101.0000 200.0000  21.9053  66.3968      184
  3.4840   1.7420 101.0000 205.0000  26.4857  71.2965      185
  3.4840   1.7420 101.0000 210.0000  31.1826  74.8487      186
  3.4840   1.7420 101.0000 215.0000  35.9499  77.5678      187
  3.4840   1.7420 101.0000 220.0000  40.7625  79.7432      188
  3.4840   1.7420 101.0000 225.0000  45.6055  81.5483      189
  3.4840   1.7420 101.0000 230.0000  50.4697  83.0931      190
  3.4840   1.7420 101.0000 235.0000  55.3488  84.4505      191
  3.4840   1.7420 101.0000 240.0000  60.2387  85.6715      192
  3.4840   1.7420 101.0000 245.0000  65.1362  86.7928      193
  3.4840   1.7420 101.0000 250.0000  70.0389  87.8422      194
  3.4840   1.7420 101.0000 255.0000  74.9450  88.8417      195
  3.4840   1.7420 101.0000 260.0000  79.8527  89.8092      196
  3.4840   1.7420 101.0000 265.0000  84.7607  90.7605      197
  3.4840   1.7420 101.0000 270.0000  89.6677  91.7100      198
  3.4840   1.7420 101.0000 275.0000  85.4278 267.3284      199
  3.4840   1.7420 101.0000 280.0000  80.5272 266.3404      200
  3.4840   1.7420 101.0000 285.0000  75.6322 265.3103      201
  3.4840   1.7420 101.0000 290.0000  70.7445 264.2203      202
  3.4840   1.7420 101.0000 295.0000  65.8667 263.0490      203
  3.4840   1.7420 101.0000 300.0000  61.0015 261.7700      204
  3.4840   1.7420 101.0000 305.0000  56.1530 260.3491      205
  3.4840   1.7420 101.0000 310.0000  51.3262 258.7408      206
  3.4840   1.7420 101.0000 315.0000  46.5285 256.8825      207
  3.4840   1.7420 101.0000 320.0000  41.7702 254.6854      208
  3.4840   1.7420 101.0000 325.0000  37.0671 252.0190      209
  3.4840   1.7420 101.0000 330.0000  32.4435 248.6843      210
  3.4840   1.7420 101.0000 335.0000  27.9393 244.3668      211
  3.4840   1.7420 101.0000 340.0000  23.6231 238.5529      212
  3.4840   1.7420 101.0000 345.0000  19.6200 230.3937      213
  3.4840   1.7420 101.0000 350.0000  16.1644 218.5693      214
  3.4840   1.7420 101.0000 355.0000  13.6781 201.6172      215
  3.4840   1.7420 106.0000   0.0000  17.7420 180.0000      216
  3.4840   1.7420 106.0000   5.0000  18.4170 163.9938      217
  3.4840   1.7420 106.0000  10.0000  20.3079 149.9932      218
  3.4840   1.7420 106.0000  15.0000  23.1178 138.7840      219
  3.4840   1.7420 106.0000  20.0000  26.5565 130.1237      220
  3.4840   1.7420 106.0000  25.0000  30.4109 123.4361      221
  3.4840   1.7420 106.0000  30.0000  34.5418 118.1863      222
  3.4840   1.7420 106.0000  35.0000  38.8604 113.9709      223
  3.4840   1.7420 106.0000  40.0000  43.3103 110.5044      224
  3.4840   1.7420 106.0000  45.0000  47.8541 107.5877      225
  3.4840   1.7420 106.0000  50.0000  52.4667 105.0802      226
  3.4840   1.7420 106.0000  55.0000  57.1308 102.8816      227
  3.4840   1.7420 106.0000  60.0000  61.8339 100.9181      228
  3.4840   1.7420 106.0000  65.0000  66.5668  99.1343      229
  3.4840   1.7420 106.0000  70.0000  71.3226  97.4877      230
  3.4840   1.7420 106.0000  75.0000  76.0958  95.9444      231
  3.4840   1.7420 106.0000  80.0000  80.8822  94.4765      232
  3.4840   1.7420 106.0000  85.0000  85.6780  93.0602      233
  3.4840   1.7420 106.0000  90.0000  89.5199 268.3254      234
  3.4840   1.7420 106.0000  95.0000  84.7144 269.7003      235
  3.4840   1.7420 106.0000 100.0000  79.9083 271.0837      236
  3.4840   1.7420 106.0000 105.0000  75.1045 272.4960      237
  3.4840   1.7420 106.0000 110.0000  70.3059 273.9593      238
  3.4840   1.7420 106.0000 115.0000  65.5161 275.4992      239
  3.4840   1.7420 106.0000 120.0000  60.7391 277.1466      240
  3.4840   1.7420 106.0000 125.0000  55.9801 278.9402      241
  3.4840   1.7420 106.0000 130.0000  51.2458 280.9306      242
  3.4840   1.7420 106.0000 135.0000  46.5454 283.1862      243
  3.4840   1.7420 106.0000 140.0000  41.8917 285.8021      244
  3.4840   1.7420 106.0000 145.0000  37.3037 288.9156      245
  3.4840   1.7420 106.0000 150.0000  32.8101 292.7312      246
  3.4840   1.7420 106.0000 155.0000  28.4569 297.5614      247
  3.4840   1.7420 106.0000 160.0000  24.3210 303.8944      248
  3.4840   1.7420 106.0000 165.0000  20.5351 312.4815      249
  3.4840   1.7420 106.0000 170.0000  17.3310 324.3626      250
  3.4840   1.7420 106.0000 175.0000  15.0851 340.4437      251
  3.4840   1.7420 106.0000 180.0000  14.2580   0.0000      252
  3.4840   1.7420 106.0000 185.0000  15.0851  19.5563      253
  3.4840   1.7420 106.0000 190.0000  17.3310  35.6374      254
  3.4840   1.7420 106.0000 195.0000  20.5351  47.5185      255
  3.4840   1.7420 106.0000 200.0000  24.3210  56.1056      256
  3.4840   1.7420 106.0000 205.0000  28.4569  62.4386      257
  3.4840   1.7420 106.0000 210.0000  32.8101  67.2688      258
  3.4840   1.7420 106.0000 215.0000  37.3037  71.0844      259
  3.4840   1.7420 106.0000 220.0000  41.8917  74.1979      260
  3.4840   1.7420 106.0000 225.0000  46.5454  76.8138      261
  3.4840   1.7420 106.0000 230.0000  51.2458  79.0694      262
  3.4840   1.7420 106.0000 235.0000  55.9801  81.0598      263
  3.4840   1.7420 106.0000 240.0000  60.7391  82.8534      264
  3.4840   1.7420 106.0000 245.0000  65.5161  84.5008      265
  3.4840   1.7420 106.0000 250.0000  70.3059  86.0407      266
  3.4840   1.7420 106.0000 255.0000  75.1045  87.5040      267
  3.4840   1.7420 106.0000 260.0000  79.9083  88.9163      268
  3.4840   1.7420 106.0000 265.0000  84.7144  90.2997      269
  3.4840   1.7420 106.0000 270.0000  89.5199  91.6746      270
  3.4840   1.7420 106.0000 275.0000  85.6780 266.9398      271
  3.4840   1.7420 106.0000 280.0000  80.8822 265.5235      272
  3.4840   1.7420 106.0000 285.0000  76.0958 264.0556      273
  3.4840   1.7420 106.0000 290.0000  71.3226 262.5123      274
  3.4840   1.7420 106.0000 295.0000  66.5668 260.8657      275
  3.4840   1.7420 106.0000 300.0000  61.8339 259.0819      276
  3.4840   1.7420 106.0000 305.0000  57.1308 257.1184      277
  3.4840   1.7420 106.0000 310.0000  52.4667 254.9198      278
  3.4840   1.7420 106.0000 315.0000  47.8541 252.4123      279
  3.4840   1.7420 106.0000 320.0000  43.3103 249.4956      280
  3.4840   1.7420 106.0000 325.0000  38.8604 246.0291      281
  3.4840   1.7420 106.0000 330.0000  34.5418 241.8137      282
  3.4840   1.7420 106.0000 335.0000  30.4109 236.5639      283
  3.4840   1.7420 106.0000 340.0000  26.5565 229.8763      284
  3.4840   1.7420 106.0000 345.0000  23.1178 221.2160      285
  3.4840   1.7420 106.0000 350.0000  20.3079 210.0068      286
  3.4840   1.7420 106.0000 355.0000  18.4170 196.0062      287
  3.4840   1.7420 111.0000   0.0000  22.7420 180.0000      288
  3.4840   1.7420 111.0000   5.0000  23.2626 167.2572      289
  3.4840   1.7420 111.0000  10.0000  24.7589 155.5159      290
  3.4840   1.7420 111.0000  15.0000  27.0691 145.3550      291
  3.4840   1.7420 111.0000  20.0000  30.0053 136.8732      292
  3.4840   1.7420 111.0000  25.0000  33.4023 129.8857      293
  3.4840   1.7420 111.0000  30.0000  37.1330 124.1175      294
  3.4840   1.7420 111.0000  35.0000  41.1058 119.3057      295
  3.4840   1.7420 111.0000  40.0000  45.2561 115.2325      296
  3.4840   1.7420 111.0000  45.0000  49.5381 111.7284      297
  3.4840   1.7420 111.0000  50.0000  53.9194 108.6635      298
  3.4840   1.7420 111.0000  55.0000  58.3763 105.9390      299
  3.4840   1.7420 111.0000  60.0000  62.8913 103.4789      300
  3.4840   1.7420 111.0000  65.0000  67.4511 101.2238      301
  3.4840   1.7420 111.0000  70.0000  72.0455  99.1266      302
  3.4840   1.7420 111.0000  75.0000  76.6663  97.1487      303
  3.4840   1.7420 111.0000  80.0000  81.3067  95.2576      304
  3.4840   1.7420 111.0000  85.0000  85.9610  93.4253      305
  3.4840   1.7420 111.0000  90.0000  89.3758 268.3736      306
  3.4840   1.7420 111.0000  95.0000  84.7085 270.1634      307
  3.4840   1.7420 111.0000 100.0000  80.0416 271.9678      308
  3.4840   1.7420 111.0000 105.0000  75.3798 273.8120      309
  3.4840   1.7420 111.0000 110.0000  70.7282 275.7231      310
  3.4840   1.7420 111.0000 115.0000  66.0926 277.7324      311
  3.4840   1.7420 111.0000 120.0000  61.4798 279.8772      312
  3.4840   1.7420 111.0000 125.0000  56.8983 282.2034      313
  3.4840   1.7420 111.0000 130.0000  52.3591 284.7695      314
  3.4840   1.7420 111.0000 135.0000  47.8766 287.6518      315
  3.4840   1.7420 111.0000 140.0000  43.4706 290.9526      316
  3.4840   1.7420 111.0000 145.0000  39.1691 294.8111      317
  3.4840   1.7420 111.0000 150.0000  35.0127 299.4198      318
  3.4840   1.7420 111.0000 155.0000  31.0615 305.0435      319
  3.4840   1.7420 111.0000 160.0000  27.4060 312.0376      320
  3.4840   1.7420 111.0000 165.0000  24.1823 320.8371      321
  3.4840   1.7420 111.0000 170.0000  21.5860 331.8499      322
  3.4840   1.7420 111.0000 175.0000  19.8656 345.1458      323
  3.4840   1.7420 111.0000 180.0000  19.2580   0.0000      324
  3.4840   1.7420 111.0000 185.0000  19.8656  14.8542      325
  3.4840   1.7420 111.0000 190.0000  21.5860  28.1501      326
  3.4840   1.7420 111.0000 195.0000  24.1823  39.1629      327
  3.4840   1.7420 111.0000 200.0000  27.4060  47.9624      328
  3.4840   1.7420 111.0000 205.0000  31.0615  54.9565      329
  3.4840   1.7420 111.0000 210.0000  35.0127  60.5802      330
  3.4840   1.7420 111.0000 215.0000  39.1691  65.1889      331
  3.4840   1.7420 111.0000 220.0000  43.4706  69.0474      332
  3.4840   1.7420 111.0000 225.0000  47.8766  72.3482      333
  3.4840   1.7420 111.0000 230.0000  52.3591  75.2305      334
  3.4840   1.7420 111.0000 235.0000  56.8983  77.7966      335
  3.4840   1.7420 111.0000 240.0000  61.4798  80.1228      336
  3.4840   1.7420 111.0000 245.0000  66.0926  82.2676      337
  3.4840   1.7420 111.0000 250.0000  70.7282  84.2769      338
  3.4840   1.7420 111.0000 255.0000  75.3798  86.1880      339
  3.4840   1.7420 111.0000 260.0000  80.0416  88.0322      340
  3.4840   1.7420 111.0000 265.0000  84.7085  89.8366      341
  3.4840   1.7420 111.0000 270.0000  89.3758  91.6264      342
  3.4840   1.7420 111.0000 275.0000  85.9610 266.5747      343
  3.4840   1.7420 111.0000 280.0000  81.3067 264.7424      344
  3.4840   1.7420 111.0000 285.0000  76.6663 262.8513      345
  3.4840   1.7420 111.0000 290.0000  72.0455 260.8734      346
  3.4840   1.7420 111.0000 295.0000  67.4511 258.7762      347
  3.4840   1.7420 111.0000 300.0000  62.8913 256.5211      348
  3.4840   1.7420 111.0000 305.0000  58.3763 254.0610      349
  3.4840   1.7420 111.0000 310.0000  53.9194 251.3365      350
  3.4840   1.7420 111.0000 315.0000  49.5381 248.2716      351
  3.4840   1.7420 111.0000 320.0000  45.2561 244.7675      352
  3.4840   1.7420 111.0000 325.0000  41.1058 240.6943      353
  3.4840   1.7420 111.0000 330.0000  37.1330 235.8825      354
  3.4840   1.7420 111.0000 335.0000  33.4023 230.1143      355
  3.4840   1.7420 111.0000 340.0000  30.0053 223.1268      356
  3.4840   1.7420 111.0000 345.0000  27.0691 214.6450      357
  3.4840   1.7420 111.0000 350.0000  24.7589 204.4841      358
  3.4840   1.7420 111.0000 355.0000  23.2626 192.7428      359
  3.4840   1.7420 116.0000   0.0000  27.7420 180.0000      360
  3.4840   1.7420 116.0000   5.0000  28.1599 169.3626      361
  3.4840   1.7420 116.0000  10.0000  29.3778 159.2794      362
  3.4840   1.7420 116.0000  15.0000  31.3020 150.1368      363
  3.4840   1.7420 116.0000  20.0000  33.8114 142.0953      364
  3.4840   1.7420 116.0000  25.0000  36.7856 135.1363      365
  3.4840   1.7420 116.0000  30.0000  40.1203 129.1439      366
  3.4840   1.7420 116.0000  35.0000  43.7319 123.9688      367
  3.4840   1.7420 116.0000  40.0000  47.5558 119.4645      368
  3.4840   1.7420 116.0000  45.0000  51.5433 115.5025      369
  3.4840   1.7420 116.0000  50.0000  55.6574 111.9751      370
  3.4840   1.7420 116.0000  55.0000  59.8701 108.7945      371
  3.4840   1.7420 116.0000  60.0000  64.1598 105.8894      372
  3.4840   1.7420 116.0000  65.0000  68.5096 103.2016      373
  3.4840   1.7420 116.0000  70.0000  72.9062 100.6829      374
  3.4840   1.7420 116.0000  75.0000  77.3385  98.2931      375
  3.4840   1.7420 116.0000  80.0000  81.7973  95.9971      376
  3.4840   1.7420 116.0000  85.0000  86.2747  93.7642      377
  3.4840   1.7420 116.0000  90.0000  89.2365 268.4342      378
  3.4840   1.7420 116.0000  95.0000  84.7429 270.6252      379
  3.4840   1.7420 116.0000 100.0000  80.2513 272.8361      380
  3.4840   1.7420 116.0000 105.0000  75.7683 275.0951      381
  3.4840   1.7420 116.0000 110.0000  71.3014 277.4331      382
  3.4840   1.7420 116.0000 115.0000  66.8589 279.8848      383
  3.4840   1.7420 116.0000 120.0000  62.4505 282.4910      384
  3.4840   1.7420 116.0000 125.0000  58.0881 285.3006      385
  3.4840   1.7420 116.0000 130.0000  53.7867 288.3741      386
  3.4840   1.7420 116.0000 135.0000  49.5657 291.7873      387
  3.4840   1.7420 116.0000 140.0000  45.4506 295.6366      388
  3.4840   1.7420 116.0000 145.0000  41.4759 300.0452      389
  3.4840   1.7420 116.0000 150.0000  37.6886 305.1689      390
  3.4840   1.7420 116.0000 155.0000  34.1538 311.1992      391
  3.4840   1.7420 116.0000 160.0000  30.9601 318.3536      392
  3.4840   1.7420 116.0000 165.0000  28.2255 326.8386      393
  3.4840   1.7420 116.0000 170.0000  26.0963 336.7602      394
  3.4840   1.7420 116.0000 175.0000  24.7304 347.9810      395
  3.4840   1.7420 116.0000 180.0000  24.2580   0.0000      396
  3.4840   1.7420 116.0000 185.0000  24.7304  12.0190      397
  3.4840   1.7420 116.0000 190.0000  26.0963  23.2398      398
  3.4840   1.7420 116.0000 195.0000  28.2255  33.1614      399
  3.4840   1.7420 116.0000 200.0000  30.9601  41.6464      400
  3.4840   1.7420 116.0000 205.0000  34.1538  48.8008      401
  3.4840   1.7420 116.0000 210.0000  37.6886  54.8311      402
  3.4840   1.7420 116.0000 215.0000  41.4759  59.9548      403
  3.4840   1.7420 116.0000 220.0000  45.4506  64.3634      404
  3.4840   1.7420 116.0000 225.0000  49.5657  68.2127      405
  3.4840   1.7420 116.0000 230.0000  53.7867  71.6259      406
  3.4840   1.7420 116.0000 235.0000  58.0881  74.6994      407
  3.4840   1.7420 116.0000 240.0000  62.4505  77.5090      408
  3.4840   1.7420 116.0000 245.0000  66.8589  80.1152      409
  3.4840   1.7420 116.0000 250.0000  71.3014  82.5669      410
  3.4840   1.7420 116.0000 255.0000  75.7683  84.9049      411
  3.4840   1.7420 116.0000 260.0000  80.2513  87.1639      412
  3.4840   1.7420 116.0000 265.0000  84.7429  89.3748      413
  3.4840   1.7420 116.0000 270.0000  89.2365  91.5658      414
  3.4840   1.7420 116.0000 275.0000  86.2747 266.2358      415
  3.4840   1.7420 116.0000 280.0000  81.7973 264.0029      416
  3.4840   1.7420 116.0000 285.0000  77.3385 261.7069      417
  3.4840   1.7420 116.0000 290.0000  72.9062 259.3171      418
  3.4840   1.7420 116.0000 295.0000  68.5096 256.7984      419
  3.4840   1.7420 116.0000 300.0000  64.1598 254.1106      420
  3.4840   1.7420 116.0000 305.0000  59.8701 251.2055      421
  3.4840   1.7420 116.0000 310.0000  55.6574 248.0249      422
  3.4840   1.7420 116.0000 315.0000  51.5433 244.4975      423
  3.4840   1.7420 116.0000 320.0000  47.5558 240.5355      424
  3.4840   1.7420 116.0000 325.0000  43.7319 236.0312      425
  3.4840   1.7420 116.0000 330.0000  40.1203 230.8561      426
  3.4840   1.7420 116.0000 335.0000  36.7856 224.8637      427
  3.4840   1.7420 116.0000 340.0000  33.8114 217.9047      428
  3.4840   1.7420 116.0000 345.0000  31.3020 209.8632      429
  3.4840   1.7420 116.0000 350.0000  29.3778 200.7206      430
  3.4840   1.7420 116.0000 355.0000  28.1599 190.6374      431
  3.4840   1.7420 121.0000   0.0000  32.7420 180.0000      432
  3.4840   1.7420 121.0000   5.0000  33.0858 170.8173      433
  3.4840   1.7420 121.0000  10.0000  34.0961 161.9636      434
  3.4840   1.7420 121.0000  15.0000  35.7160 153.6947      435
  3.4840   1.7420 121.0000  20.0000  37.8663 146.1555      436
  3.4840   1.7420 121.0000  25.0000  40.4615 139.3871      437
  3.4840   1.7420 121.0000  30.0000  43.4205 133.3563      438
  3.4840   1.7420 121.0000  35.0000  46.6724 127.9899      439
  3.4840   1.7420 121.0000  40.0000  50.1583 123.1989      440
  3.4840   1.7420 121.0000  45.0000  53.8308 118.8945      441
  3.4840   1.7420 121.0000  50.0000  57.6517 114.9949      442
  3.4840   1.7420 121.0000  55.0000  61.5907 111.4279      443
  3.4840   1.7420 121.0000  60.0000  65.6236 108.1315      444
  3.4840   1.7420 121.0000  65.0000  69.7309 105.0524      445
  3.4840   1.7420 121.0000  70.0000  73.8963 102.1449      446
  3.4840   1.7420 121.0000  75.0000  78.1066  99.3690      447
  3.4840   1.7420 121.0000  80.0000  82.3501  96.6894      448
  3.4840   1.7420 121.0000  85.0000  86.6167  94.0742      449
  3.4840   1.7420 121.0000  90.0000  89.1029 268.5067      450
  3.4840   1.7420 121.0000  95.0000  84.8175 271.0823      451
  3.4840   1.7420 121.0000 100.0000  80.5357 273.6816      452
  3.4840   1.7420 121.0000 105.0000  76.2665 276.3348      453
  3.4840   1.7420 121.0000 110.0000  72.0197 279.0744      454
  3.4840   1.7420 121.0000 115.0000  67.8060 281.9367      455
  3.4840   1.7420 121.0000 120.0000  63.6379 284.9629      456
  3.4840   1.7420 121.0000 125.0000  59.5305 288.2013      457
  3.4840   1.7420 121.0000 130.0000  55.5019 291.7094      458
  3.4840   1.7420 121.0000 135.0000  51.5753 295.5558      459
  3.4840   1.7420 121.0000 140.0000  47.7798 299.8232      460
  3.4840   1.7420 121.0000 145.0000  44.1530 304.6096      461
  3.4840   1.7420 121.0000 150.0000  40.7432 310.0280      462
  3.4840   1.7420 121.0000 155.0000  37.6126 316.2008      463
  3.4840   1.7420 121.0000 160.0000  34.8392 323.2433      464
  3.4840   1.7420 121.0000 165.0000  32.5168 331.2323      465
  3.4840   1.7420 121.0000 170.0000  30.7494 340.1552      466
  3.4840   1.7420 121.0000 175.0000  29.6380 349.8537      467
  3.4840   1.7420 121.0000 180.0000  29.2580   0.0000      468
  3.4840   1.7420 121.0000 185.0000  29.6380  10.1463      469
  3.4840   1.7420 121.0000 190.0000  30.7494  19.8448      470
  3.4840   1.7420 121.0000 195.0000  32.5168  28.7677      471
  3.4840   1.7420 121.0000 200.0000  34.8392  36.7567      472
  3.4840   1.7420 121.0000 205.0000  37.6126  43.7992      473
  3.4840   1.7420 121.0000 210.0000  40.7432  49.9720      474
  3.4840   1.7420 121.0000 215.0000  44.1530  55.3904      475
  3.4840   1.7420 121.0000 220.0000  47.7798  60.1768      476
  3.4840   1.7420 121.0000 225.0000  51.5753  64.4442      477
  3.4840   1.7420 121.0000 230.0000  55.5019  68.2906      478
  3.4840   1.7420 121.0000 235.0000  59.5305  71.7987      479
  3.4840   1.7420 121.0000 240.0000  63.6379  75.0371      480
  3.4840   1.7420 121.0000 245.0000  67.8060  78.0633      481
  3.4840   1.7420 121.0000 250.0000  72.0197  80.9256      482
  3.4840   1.7420 121.0000 255.0000  76.2665  83.6652      483
  3.4840   1.7420 121.0000 260.0000  80.5357  86.3184      484
  3.4840   1.7420 121.0000 265.0000  84.8175  88.9177      485
  3.4840   1.7420 121.0000 270.0000  89.1029  91.4933      486
  3.4840   1.7420 121.0000 275.0000  86.6167 265.9258      487
  3.4840   1.7420 121.0000 280.0000  82.3501 263.3106      488
  3.4840   1.7420 121.0000 285.0000  78.1066 260.6310      489
  3.4840   1.7420 121.0000 290.0000  73.8963 257.8551      490
  3.4840   1.7420 121.0000 295.0000  69.7309 254.9476      491
  3.4840   1.7420 121.0000 300.0000  65.6236 251.8685      492
  3.4840   1.7420 121.0000 305.0000  61.5907 248.5721      493
  3.4840   1.7420 121.0000 310.0000  57.6517 245.0051      494
  3.4840   1.7420 121.0000 315.0000  53.8308 241.1055      495
  3.4840   1.7420 121.0000 320.0000  50.1583 236.8011      496
  3.4840   1.7420 121.0000 325.0000  46.6724 232.0101      497
  3.4840   1.7420 121.0000 330.0000  43.4205 226.6437      498
  3.4840   1.7420 121.0000 335.0000  40.4615 220.6129      499
  3.4840   1.7420 121.0000 340.0000  37.8663 213.8445      500
  3.4840   1.7420 121.0000 345.0000  35.7160 206.3053      501
  3.4840   1.7420 121.0000 350.0000  34.0961 198.0364      502
  3.4840   1.7420 121.0000 355.0000  33.0858 189.1827      503
  3.4840   1.7420 126.0000   0.0000  37.7420 180.0000      504
  3.4840   1.7420 126.0000   5.0000  38.0291 171.8707      505
  3.4840   1.7420 126.0000  10.0000  38.8775 163.9466      506
  3.4840   1.7420 126.0000  15.0000  40.2510 156.3982      507
  3.4840   1.7420 126.0000  20.0000  42.0973 149.3399      508
  3.4840   1.7420 126.0000  25.0000  44.3559 142.8267      509
  3.4840   1.7420 126.0000  30.0000  46.9656 136.8641      510
  3.4840   1.7420 126.0000  35.0000  49.8693 131.4233      511
  3.4840   1.7420 126.0000  40.0000  53.0162 126.4560      512
  3.4840   1.7420 126.0000  45.0000  56.3630 121.9056      513
  3.4840   1.7420 126.0000  50.0000  59.8730 117.7143      514
  3.4840   1.7420 126.0000  55.0000  63.5158 113.8267      515
  3.4840   1.7420 126.0000  60.0000  67.2660 110.1920      516
  3.4840   1.7420 126.0000  65.0000  71.1023 106.7642      517
  3.4840   1.7420 126.0000  70.0000  75.0068 103.5022      518
  3.4840   1.7420 126.0000  75.0000  78.9641 100.3687      519
  3.4840   1.7420 126.0000  80.0000  82.9606  97.3295      520
  3.4840   1.7420 126.0000  85.0000  86.9843  94.3531      521
  3.4840   1.7420 126.0000  90.0000  88.9762 268.5905      522
  3.4840   1.7420 126.0000  95.0000  84.9315 271.5309      523
  3.4840   1.7420 126.0000 100.0000  80.8925 274.4975      524
  3.4840   1.7420 126.0000 105.0000  76.8701 277.5209      525
  3.4840   1.7420 126.0000 110.0000  72.8760 280.6336      526
  3.4840   1.7420 126.0000 115.0000  68.9234 283.8711      527
  3.4840   1.7420 126.0000 120.0000  65.0271 287.2729      528
  3.4840   1.7420 126.0000 125.0000  61.2044 290.8836      529
  3.4840   1.7420 126.0000 130.0000  57.4759 294.7540      530
  3.4840   1.7420 126.0000 135.0000  53.8668 298.9421      531
  3.4840   1.7420 126.0000 140.0000  50.4074 303.5132      532
  3.4840   1.7420 126.0000 145.0000  47.1353 308.5390      533
  3.4840   1.7420 126.0000 150.0000  44.0961 314.0940      534
  3.4840   1.7420 126.0000 155.0000  41.3448 320.2481      535
  3.4840   1.7420 126.0000 160.0000  38.9455 327.0530      536
  3.4840   1.7420 126.0000 165.0000  36.9694 334.5216      537
  3.4840   1.7420 126.0000 170.0000  35.4891 342.6041      538
  3.4840   1.7420 126.0000 175.0000  34.5700 351.1684      539
  3.4840   1.7420 126.0000 180.0000  34.2580   0.0000      540
  3.4840   1.7420 126.0000 185.0000  34.5700   8.8316      541
  3.4840   1.7420 126.0000 190.0000  35.4891  17.3959      542
  3.4840   1.7420 126.0000 195.0000  36.9694  25.4784      543
  3.4840   1.7420 126.0000 200.0000  38.9455  32.9470      544
  3.4840   1.7420 126.0000 205.0000  41.3448  39.7519      545
  3.4840   1.7420 126.0000 210.0000  44.0961  45.9060      546
  3.4840   1.7420 126.0000 215.0000  47.1353  51.4610      547
  3.4840   1.7420 126.0000 220.0000  50.4074  56.4868      548
  3.4840   1.7420 126.0000 225.0000  53.8668  61.0579      549
  3.4840   1.7420 126.0000 230.0000  57.4759  65.2460      550
  3.4840   1.7420 126.0000 235.0000  61.2044  69.1164      551
  3.4840   1.7420 126.0000 240.0000  65.0271  72.7271      552
  3.4840   1.7420 126.0000 245.0000  68.9234  76.1289      553
  3.4840   1.7420 126.0000 250.0000  72.8760  79.3664      554
  3.4840   1.7420 126.0000 255.0000  76.8701  82.4791      555
  3.4840   1.7420 126.0000 260.0000  80.8925  85.5025      556
  3.4840   1.7420 126.0000 265.0000  84.9315  88.4691      557
  3.4840   1.7420 126.0000 270.0000  88.9762  91.4095      558
  3.4840   1.7420 126.0000 275.0000  86.9843 265.6469      559
  3.4840   1.7420 126.0000 280.0000  82.9606 262.6705      560
  3.4840   1.7420 126.0000 285.0000  78.9641 259.6313      561
  3.4840   1.7420 126.0000 290.0000  75.0068 256.4978      562
  3.4840   1.7420 126.0000 295.0000  71.1023 253.2358      563
  3.4840   1.7420 126.0000 300.0000  67.2660 249.8080      564
  3.4840   1.7420 126.0000 305.0000  63.5158 246.1733      565
  3.4840   1.7420 126.0000 310.0000  59.8730 242.2857      566
  3.4840   1.7420 126.0000 315.0000  56.3630 238.0944      567
  3.4840   1.7420 126.0000 320.0000  53.0162 233.5440      568
  3.4840   1.7420 126.0000 325.0000  49.8693 228.5767      569
  3.4840   1.7420 126.0000 330.0000  46.9656 223.1359      570
  3.4840   1.7420 126.0000 335.0000  44.3559 217.1733      571
  3.4840   1.7420 126.0000 340.0000  42.0973 210.6601      572
  3.4840   1.7420 126.0000 345.0000  40.2510 203.6018      573
  3.4840   1.7420 126.0000 350.0000  38.8775 196.0534      574
  3.4840   1.7420 126.0000 355.0000  38.0291 188.1293      575
  3.4840   1.7420 131.0000   0.0000  42.7420 180.0000      576
  3.4840   1.7420 131.0000   5.0000  42.9838 172.6590      577
  3.4840   1.7420 131.0000  10.0000  43.7009 165.4501      578
  3.4840   1.7420 131.0000  15.0000  44.8697 158.4883      579
  3.4840   1.7420 131.0000  20.0000  46.4550 151.8591      580
  3.4840   1.7420 131.0000  25.0000  48.4143 145.6141      581
  3.4840   1.7420 131.0000  30.0000  50.7021 139.7736      582
  3.4840   1.7420 131.0000  35.0000  53.2737 134.3325      583
  3.4840   1.7420 131.0000  40.0000  56.0872 129.2684      584
  3.4840   1.7420 131.0000  45.0000  59.1047 124.5482      585
  3.4840   1.7420 131.0000  50.0000  62.2930 120.1335      586
  3.4840   1.7420 131.0000  55.0000  65.6229 115.9845      587
  3.4840   1.7420 131.0000  60.0000  69.0694 112.0617      588
  3.4840   1.7420 131.0000  65.0000  72.6107 108.3275      589
  3.4840   1.7420 131.0000  70.0000  76.2278 104.7465      590
  3.4840   1.7420 131.0000  75.0000  79.9039 101.2853      591
  3.4840   1.7420 131.0000  80.0000  83.6242  97.9127      592
  3.4840   1.7420 131.0000  85.0000  87.3747  94.5989      593
  3.4840   1.7420 131.0000  90.0000  88.8572 268.6851      594
  3.4840   1.7420 131.0000  95.0000  85.0843 271.9677      595
  3.4840   1.7420 131.0000 100.0000  81.3188 275.2777      596
  3.4840   1.7420 131.0000 105.0000  77.5735 278.6444      597
  3.4840   1.7420 131.0000 110.0000  73.8621 282.0988      598
  3.4840   1.7420 131.0000 115.0000  70.1993 285.6741      599
  3.4840   1.7420 131.0000 120.0000  66.6015 289.4059      600
  3.4840   1.7420 131.0000 125.0000  63.0876 293.3333      601
  3.4840   1.7420 131.0000 130.0000  59.6794 297.4986      602
  3.4840   1.7420 131.0000 135.0000  56.4024 301.9476      603
  3.4840   1.7420 131.0000 140.0000  53.2863 306.7285      604
  3.4840   1.7420 131.0000 145.0000  50.3661 311.8899      605
  3.4840   1.7420 131.0000 150.0000  47.6824 317.4768      606
  3.4840   1.7420 131.0000 155.0000  45.2813 323.5241      607
  3.4840   1.7420 131.0000 160.0000  43.2132 330.0479      608
  3.4840   1.7420 131.0000 165.0000  41.5307 337.0342      609
  3.4840   1.7420 131.0000 170.0000  40.2844 344.4286      610
  3.4840   1.7420 131.0000 175.0000  39.5172 352.1311      611
  3.4840   1.7420 131.0000 180.0000  39.2580   0.0000      612
  3.4840   1.7420 131.0000 185.0000  39.5172   7.8689      613
  3.4840   1.7420 131.0000 190.0000  40.2844  15.5714      614
  3.4840   1.7420 131.0000 195.0000  41.5307  22.9658      615
  3.4840   1.7420 131.0000 200.0000  43.2132  29.9521      616
  3.4840   1.7420 131.0000 205.0000  45.2813  36.4759      617
  3.4840   1.7420 131.0000 210.0000  47.6824  42.5232      618
  3.4840   1.7420 131.0000 215.0000  50.3661  48.1101      619
  3.4840   1.7420 131.0000 220.0000  53.2863  53.2715      620
  3.4840   1.7420 131.0000 225.0000  56.4024  58.0524      621
  3.4840   1.7420 131.0000 230.0000  59.6794  62.5014      622
  3.4840   1.7420 131.0000 235.0000  63.0876  66.6667      623
  3.4840   1.7420 131.0000 240.0000  66.6015  70.5941      624
  3.4840   1.7420 131.0000 245.0000  70.1993  74.3259      625
  3.4840   1.7420 131.0000 250.0000  73.8621  77.9012      626
  3.4840   1.7420 131.0000 255.0000  77.5735  81.3556      627
  3.4840   1.7420 131.0000 260.0000  81.3188  84.7223      628
  3.4840   1.7420 131.0000 265.0000  85.0843  88.0323      629
  3.4840   1.7420 131.0000 270.0000  88.8572  91.3149      630
  3.4840   1.7420 131.0000 275.0000  87.3747 265.4011      631
  3.4840   1.7420 131.0000 280.0000  83.6242 262.0873      632
  3.4840   1.7420 131.0000 285.0000  79.9039 258.7147      633
  3.4840   1.7420 131.0000 290.0000  76.2278 255.2535      634
  3.4840   1.7420 131.0000 295.0000  72.6107 251.6725      635
  3.4840   1.7420 131.0000 300.0000  69.0694 247.9383      636
  3.4840   1.7420 131.0000 305.0000  65.6229 244.0155      637
  3.4840   1.7420 131.0000 310.0000  62.2930 239.8665      638
  3.4840   1.7420 131.0000 315.0000  59.1047 235.4518      639
  3.4840   1.7420 131.0000 320.0000  56.0872 230.7316      640
  3.4840   1.7420 131.0000 325.0000  53.2737 225.6675      641
  3.4840   1.7420 131.0000 330.0000  50.7021 220.2264      642
  3.4840   1.7420 131.0000 335.0000  48.4143 214.3859      643
  3.4840   1.7420 131.0000 340.0000  46.4550 208.1409      644
  3.4840   1.7420 131.0000 345.0000  44.8697 201.5117      645
  3.4840   1.7420 131.0000 350.0000  43.7009 194.5499      646
  3.4840   1.7420 131.0000 355.0000  42.9838 187.3410      647
  3.4840   1.7420 136.0000   0.0000  47.7420 180.0000      648
  3.4840   1.7420 136.0000   5.0000  47.9462 173.2623      649
  3.4840   1.7420 136.0000  10.0000  48.5534 166.6113      650
  3.4840   1.7420 136.0000  15.0000  49.5480 160.1250      651
  3.4840   1.7420 136.0000  20.0000  50.9059 153.8654      652
  3.4840   1.7420 136.0000  25.0000  52.5971 147.8754      653
  3.4840   1.7420 136.0000  30.0000  54.5884 142.1783      654
  3.4840   1.7420 136.0000  35.0000  56.8454 136.7803      655
  3.4840   1.7420 136.0000  40.0000  59.3344 131.6737      656
  3.4840   1.7420 136.0000  45.0000  62.0239 126.8412      657
  3.4840   1.7420 136.0000  50.0000  64.8845 122.2592      658
  3.4840   1.7420 136.0000  55.0000  67.8899 117.9002      659
  3.4840   1.7420 136.0000  60.0000  71.0162 113.7354      660
  3.4840   1.7420 136.0000  65.0000  74.2421 109.7352      661
  3.4840   1.7420 136.0000  70.0000  77.5487 105.8705      662
  3.4840   1.7420 136.0000  75.0000  80.9184 102.1130      663
  3.4840   1.7420 136.0000  80.0000  84.3355  98.4350      664
  3.4840   1.7420 136.0000  85.0000  87.7851  94.8096      665
  3.4840   1.7420 136.0000  90.0000  88.7470 268.7897      666
  3.4840   1.7420 136.0000  95.0000  85.2745 272.3894      667
  3.4840   1.7420 136.0000 100.0000  81.8111 276.0160      668
  3.4840   1.7420 136.0000 105.0000  78.3709 279.6967      669
  3.4840   1.7420 136.0000 110.0000  74.9688 283.4597      670
  3.4840   1.7420 136.0000 115.0000  71.6207 287.3343      671
  3.4840   1.7420 136.0000 120.0000  68.3438 291.3513      672
  3.4840   1.7420 136.0000 125.0000  65.1577 295.5430      673
  3.4840   1.7420 136.0000 130.0000  62.0839 299.9428      674
  3.4840   1.7420 136.0000 135.0000  59.1470 304.5848      675
  3.4840   1.7420 136.0000 140.0000  56.3746 309.5025      676
  3.4840   1.7420 136.0000 145.0000  53.7979 314.7263      677
  3.4840   1.7420 136.0000 150.0000  51.4512 320.2807      678
  3.4840   1.7420 136.0000 155.0000  49.3716 326.1797      679
  3.4840   1.7420 136.0000 160.0000  47.5978 332.4218      680
  3.4840   1.7420 136.0000 165.0000  46.1681 338.9845      681
  3.4840   1.7420 136.0000 170.0000  45.1174 345.8205      682
  3.4840   1.7420 136.0000 175.0000  44.4745 352.8570      683
  3.4840   1.7420 136.0000 180.0000  44.2580   0.0000      684
  3.4840   1.7420 136.0000 185.0000  44.4745   7.1430      685
  3.4840   1.7420 136.0000 190.0000  45.1174  14.1795      686
  3.4840   1.7420 136.0000 195.0000  46.1681  21.0155      687
  3.4840   1.7420 136.0000 200.0000  47.5978  27.5782      688
  3.4840   1.7420 136.0000 205.0000  49.3716  33.8203      689
  3.4840   1.7420 136.0000 210.0000  51.4512  39.7193      690
  3.4840   1.7420 136.0000 215.0000  53.7979  45.2737      691
  3.4840   1.7420 136.0000 220.0000  56.3746  50.4975      692
  3.4840   1.7420 136.0000 225.0000  59.1470  55.4152      693
  3.4840   1.7420 136.0000 230.0000  62.0839  60.0572      694
  3.4840   1.7420 136.0000 235.0000  65.1577  64.4570      695
  3.4840   1.7420 136.0000 240.0000  68.3438  68.6487      696
  3.4840   1.7420 136.0000 245.0000  71.6207  72.6657      697
  3.4840   1.7420 136.0000 250.0000  74.9688  76.5403      698
  3.4840   1.7420 136.0000 255.0000  78.3709  80.3033      699
  3.4840   1.7420 136.0000 260.0000  81.8111  83.9840      700
  3.4840   1.7420 136.0000 265.0000  85.2745  87.6106      701
  3.4840   1.7420 136.0000 270.0000  88.7470  91.2103      702
  3.4840   1.7420 136.0000 275.0000  87.7851 265.1904      703
  3.4840   1.7420 136.0000 280.0000  84.3355 261.5650      704
  3.4840   1.7420 136.0000 285.0000  80.9184 257.8870      705
  3.4840   1.7420 136.0000 290.0000  77.5487 254.1295      706
  3.4840   1.7420 136.0000 295.0000  74.2421 250.2648      707
  3.4840   1.7420 136.0000 300.0000  71.0162 246.2646      708
  3.4840   1.7420 136.0000 305.0000  67.8899 242.0998      709
  3.4840   1.7420 136.0000 310.0000  64.8845 237.7408      710
  3.4840   1.7420 136.0000 315.0000  62.0239 233.1588      711
  3.4840   1.7420 136.0000 320.0000  59.3344 228.3263      712
  3.4840   1.7420 136.0000 325.0000  56.8454 223.2197      713
  3.4840   1.7420 136.0000 330.0000  54.5884 217.8217      714
  3.4840   1.7420 136.0000 335.0000  52.5971 212.1246      715
  3.4840   1.7420 136.0000 340.0000  50.9059 206.1346      716
  3.4840   1.7420 136.0000 345.0000  49.5480 199.8750      717
  3.4840   1.7420 136.0000 350.0000  48.5534 193.3887      718
  3.4840   1.7420 136.0000 355.0000  47.9462 186.7377      719
  3.4840   1.7420 141.0000   0.0000  52.7420 180.0000      720
  3.4840   1.7420 141.0000   5.0000  52.9141 173.7306      721
  3.4840   1.7420 141.0000  10.0000  53.4268 167.5186      722
  3.4840   1.7420 141.0000  15.0000  54.2696 161.4166      723
  3.4840   1.7420 141.0000  20.0000  55.4260 155.4689      724
  3.4840   1.7420 141.0000  25.0000  56.8748 149.7086      725
  3.4840   1.7420 141.0000  30.0000  58.5918 144.1568      726
  3.4840   1.7420 141.0000  35.0000  60.5511 138.8238      727
  3.4840   1.7420 141.0000  40.0000  62.7264 133.7096      728
  3.4840   1.7420 141.0000  45.0000  65.0917 128.8067      729
  3.4840   1.7420 141.0000  50.0000  67.6225 124.1014      730
  3.4840   1.7420 141.0000  55.0000  70.2953 119.5761      731
  3.4840   1.7420 141.0000  60.0000  73.0887 115.2104      732
  3.4840   1.7420 141.0000  65.0000  75.9827 110.9822      733
  3.4840   1.7420 141.0000  70.0000  78.9587 106.8687      734
  3.4840   1.7420 141.0000  75.0000  81.9996 102.8466      735
  3.4840   1.7420 141.0000  80.0000  85.0892  98.8928      736
  3.4840   1.7420 141.0000  85.0000  88.2121  94.9838      737
  3.4840   1.7420 141.0000  90.0000  88.6463 268.9035      738
  3.4840   1.7420 141.0000  95.0000  85.5006 272.7926      739
  3.4840   1.7420 141.0000 100.0000  82.3654 276.7070      740
  3.4840   1.7420 141.0000 105.0000  79.2555 280.6706      741
  3.4840   1.7420 141.0000 110.0000  76.1863 284.7078      742
  3.4840   1.7420 141.0000 115.0000  73.1741 288.8433      743
  3.4840   1.7420 141.0000 120.0000  70.2365 293.1024      744
  3.4840   1.7420 141.0000 125.0000  67.3922 297.5104      745
  3.4840   1.7420 141.0000 130.0000  64.6620 302.0926      746
  3.4840   1.7420 141.0000 135.0000  62.0685 306.8728      747
  3.4840   1.7420 141.0000 140.0000  59.6362 311.8728      748
  3.4840   1.7420 141.0000 145.0000  57.3915 317.1102      749
  3.4840   1.7420 141.0000 150.0000  55.3627 322.5964      750
  3.4840   1.7420 141.0000 155.0000  53.5786 328.3343      751
  3.4840   1.7420 141.0000 160.0000  52.0685 334.3149      752
  3.4840   1.7420 141.0000 165.0000  50.8598 340.5159      753
  3.4840   1.7420 141.0000 170.0000  49.9768 346.8999      754
  3.4840   1.7420 141.0000 175.0000  49.4388 353.4155      755
  3.4840   1.7420 141.0000 180.0000  49.2580   0.0000      756
  3.4840   1.7420 141.0000 185.0000  49.4388   6.5845      757
  3.4840   1.7420 141.0000 190.0000  49.9768  13.1001      758
  3.4840   1.7420 141.0000 195.0000  50.8598  19.4841      759
  3.4840   1.7420 141.0000 200.0000  52.0685  25.6851      760
  3.4840   1.7420 141.0000 205.0000  53.5786  31.6657      761
  3.4840   1.7420 141.0000 210.0000  55.3627  37.4036      762
  3.4840   1.7420 141.0000 215.0000  57.3915  42.8898      763
  3.4840   1.7420 141.0000 220.0000  59.6362  48.1272      764
  3.4840   1.7420 141.0000 225.0000  62.0685  53.1272      765
  3.4840   1.7420 141.0000 230.0000  64.6620  57.9074      766
  3.4840   1.7420 141.0000 235.0000  67.3922  62.4896      767
  3.4840   1.7420 141.0000 240.0000  70.2365  66.8976      768
  3.4840   1.7420 141.0000 245.0000  73.1741  71.1567      769
  3.4840   1.7420 141.0000 250.0000  76.1863  75.2922      770
  3.4840   1.7420 141.0000 255.0000  79.2555  79.3294      771
  3.4840   1.7420 141.0000 260.0000  82.3654  83.2930      772
  3.4840   1.7420 141.0000 265.0000  85.5006  87.2074      773
  3.4840   1.7420 141.0000 270.0000  88.6463  91.0965      774
  3.4840   1.7420 141.0000 275.0000  88.2121 265.0162      775
  3.4840   1.7420 141.0000 280.0000  85.0892 261.1072      776
  3.4840   1.7420 141.0000 285.0000  81.9996 257.1534      777
  3.4840   1.7420 141.0000 290.0000  78.9587 253.1313      778
  3.4840   1.7420 141.0000 295.0000  75.9827 249.0178      779
  3.4840   1.7420 141.0000 300.0000  73.0887 244.7896      780
  3.4840   1.7420 141.0000 305.0000  70.2953 240.4239      781
  3.4840   1.7420 141.0000 310.0000  67.6225 235.8986      782
  3.4840   1.7420 141.0000 315.0000  65.0917 231.1933      783
  3.4840   1.7420 141.0000 320.0000  62.7264 226.2904      784
  3.4840   1.7420 141.0000 325.0000  60.5511 221.1762      785
  3.4840   1.7420 141.0000 330.0000  58.5918 215.8432      786
  3.4840   1.7420 141.0000 335.0000  56.8748 210.2914      787
  3.4840   1.7420 141.0000 340.0000  55.4260 204.5311      788
  3.4840   1.7420 141.0000 345.0000  54.2696 198.5834      789
  3.4840   1.7420 141.0000 350.0000  53.4268 192.4814      790
  3.4840   1.7420 141.0000 355.0000  52.9141 186.2694      791
  3.4840   1.7420 146.0000   0.0000  57.7420 180.0000      792
  3.4840   1.7420 146.0000   5.0000  57.8860 174.0965      793
  3.4840   1.7420 146.0000  10.0000  58.3155 168.2309      794
  3.4840   1.7420 146.0000  15.0000  59.0234 162.4383      795
  3.4840   1.7420 146.0000  20.0000  59.9984 156.7493      796
  3.4840   1.7420 146.0000  25.0000  61.2254 151.1884      797
  3.4840   1.7420 146.0000  30.0000  62.6871 145.7727      798
  3.4840   1.7420 146.0000  35.0000  64.3641 140.5126      799
  3.4840   1.7420 146.0000  40.0000  66.2362 135.4114      800
  3.4840   1.7420 146.0000  45.0000  68.2829 130.4671      801
  3.4840   1.7420 146.0000  50.0000  70.4837 125.6725      802
  3.4840   1.7420 146.0000  55.0000  72.8191 121.0168      803
  3.4840   1.7420 146.0000  60.0000  75.2699 116.4863      804
  3.4840   1.7420 146.0000  65.0000  77.8182 112.0652      805
  3.4840   1.7420 146.0000  70.0000  80.4467 107.7365      806
  3.4840   1.7420 146.0000  75.0000  83.1390 103.4820      807
  3.4840   1.7420 146.0000  80.0000  85.8794  99.2830      808
  3.4840   1.7420 146.0000  85.0000  88.6527  95.1202      809
  3.4840   1.7420 146.0000  90.0000  88.5559 269.0257      810
  3.4840   1.7420 146.0000  95.0000  85.7610 273.1744      811
  3.4840   1.7420 146.0000 100.0000  82.9775 277.3456      812
  3.4840   1.7420 146.0000 105.0000  80.2200 281.5595      813
  3.4840   1.7420 146.0000 110.0000  77.5042 285.8358      814
  3.4840   1.7420 146.0000 115.0000  74.8458 290.1946      815
  3.4840   1.7420 146.0000 120.0000  72.2617 294.6555      816
  3.4840   1.7420 146.0000 125.0000  69.7698 299.2374      817
  3.4840   1.7420 146.0000 130.0000  67.3887 303.9581      818
  3.4840   1.7420 146.0000 135.0000  65.1384 308.8336      819
  3.4840   1.7420 146.0000 140.0000  63.0399 313.8771      820
  3.4840   1.7420 146.0000 145.0000  61.1149 319.0977      821
  3.4840   1.7420 146.0000 150.0000  59.3859 324.4995      822
  3.4840   1.7420 146.0000 155.0000  57.8750 330.0798      823
  3.4840   1.7420 146.0000 160.0000  56.6036 335.8282      824
  3.4840   1.7420 146.0000 165.0000  55.5914 341.7258      825
  3.4840   1.7420 146.0000 170.0000  54.8552 347.7450      826
  3.4840   1.7420 146.0000 175.0000  54.4080 353.8502      827
  3.4840   1.7420 146.0000 180.0000  54.2580   0.0000      828
  3.4840   1.7420 146.0000 185.0000  54.4080   6.1498      829
  3.4840   1.7420 146.0000 190.0000  54.8552  12.2550      830
  3.4840   1.7420 146.0000 195.0000  55.5914  18.2742      831
  3.4840   1.7420 146.0000 200.0000  56.6036  24.1718      832
  3.4840   1.7420 146.0000 205.0000  57.8750  29.9202      833
  3.4840   1.7420 146.0000 210.0000  59.3859  35.5005      834
  3.4840   1.7420 146.0000 215.0000  61.1149  40.9023      835
  3.4840   1.7420 146.0000 220.0000  63.0399  46.1229      836
  3.4840   1.7420 146.0000 225.0000  65.1384  51.1664      837
  3.4840   1.7420 146.0000 230.0000  67.3887  56.0419      838
  3.4840   1.7420 146.0000 235.0000  69.7698  60.7626      839
  3.4840   1.7420 146.0000 240.0000  72.2617  65.3445      840
  3.4840   1.7420 146.0000 245.0000  74.8458  69.8054      841
  3.4840   1.7420 146.0000 250.0000  77.5042  74.1642      842
  3.4840   1.7420 146.0000 255.0000  80.2200  78.4405      843
  3.4840   1.7420 146.0000 260.0000  82.9775  82.6544      844
  3.4840   1.7420 146.0000 265.0000  85.7610  86.8256      845
  3.4840   1.7420 146.0000 270.0000  88.5559  90.9743      846
  3.4840   1.7420 146.0000 275.0000  88.6527 264.8798      847
  3.4840   1.7420 146.0000 280.0000  85.8794 260.7170      848
  3.4840   1.7420 146.0000 285.0000  83.1390 256.5180      849
  3.4840   1.7420 146.0000 290.0000  80.4467 252.2635      850
  3.4840   1.7420 146.0000 295.0000  77.8182 247.9348      851
  3.4840   1.7420 146.0000 300.0000  75.2699 243.5137      852
  3.4840   1.7420 146.0000 305.0000  72.8191 238.9832      853
  3.4840   1.7420 146.0000 310.0000  70.4837 234.3275      854
  3.4840   1.7420 146.0000 315.0000  68.2829 229.5329      855
  3.4840   1.7420 146.0000 320.0000  66.2362 224.5886      856
  3.4840   1.7420 146.0000 325.0000  64.3641 219.4874      857
  3.4840   1.7420 146.0000 330.0000  62.6871 214.2273      858
  3.4840   1.7420 146.0000 335.0000  61.2254 208.8116      859
  3.4840   1.7420 146.0000 340.0000  59.9984 203.2507      860
  3.4840   1.7420 146.0000 345.0000  59.0234 197.5617      861
  3.4840   1.7420 146.0000 350.0000  58.3155 191.7691      862
  3.4840   1.7420 146.0000 355.0000  57.8860 185.9035      863
  3.4840   1.7420 151.0000   0.0000  62.7420 180.0000      864
  3.4840   1.7420 151.0000   5.0000  62.8608 174.3821      865
  3.4840   1.7420 151.0000  10.0000  63.2155 168.7887      866
  3.4840   1.7420 151.0000  15.0000  63.8013 163.2427      867
  3.4840   1.7420 151.0000  20.0000  64.6102 157.7646      868
  3.4840   1.7420 151.0000  25.0000  65.6320 152.3716      869
  3.4840   1.7420 151.0000  30.0000  66.8540 147.0765      870
  3.4840   1.7420 151.0000  35.0000  68.2621 141.8879      871
  3.4840   1.7420 151.0000  40.0000  69.8410 136.8101      872
  3.4840   1.7420 151.0000  45.0000  71.5748 131.8435      873
  3.4840   1.7420 151.0000  50.0000  73.4472 126.9849      874
  3.4840   1.7420 151.0000  55.0000  75.4420 122.2279      875
  3.4840   1.7420 151.0000  60.0000  77.5431 117.5640      876
  3.4840   1.7420 151.0000  65.0000  79.7346 112.9823      877
  3.4840   1.7420 151.0000  70.0000  82.0013 108.4707      878
  3.4840   1.7420 151.0000  75.0000  84.3281 104.0157      879
  3.4840   1.7420 151.0000  80.0000  86.7002  99.6030      880
  3.4840   1.7420 151.0000  85.0000  89.1035  95.2178      881
  3.4840   1.7420 151.0000  90.0000  88.4765 269.1553      882
  3.4840   1.7420 151.0000  95.0000  86.0537 273.5317      883
  3.4840   1.7420 151.0000 100.0000  83.6423 277.9273      884
  3.4840   1.7420 151.0000 105.0000  81.2567 282.3576      885
  3.4840   1.7420 151.0000 110.0000  78.9115 286.8382      886
  3.4840   1.7420 151.0000 115.0000  76.6215 291.3840      887
  3.4840   1.7420 151.0000 120.0000  74.4024 296.0094      888
  3.4840   1.7420 151.0000 125.0000  72.2698 300.7279      889
  3.4840   1.7420 151.0000 130.0000  70.2405 305.5513      890
  3.4840   1.7420 151.0000 135.0000  68.3312 310.4896      891
  3.4840   1.7420 151.0000 140.0000  66.5592 315.5502      892
  3.4840   1.7420 151.0000 145.0000  64.9419 320.7372      893
  3.4840   1.7420 151.0000 150.0000  63.4966 326.0507      894
  3.4840   1.7420 151.0000 155.0000  62.2399 331.4865      895
  3.4840   1.7420 151.0000 160.0000  61.1872 337.0352      896
  3.4840   1.7420 151.0000 165.0000  60.3526 342.6824      897
  3.4840   1.7420 151.0000 170.0000  59.7475 348.4085      898
  3.4840   1.7420 151.0000 175.0000  59.3808 354.1900      899
  3.4840   1.7420 151.0000 180.0000  59.2580   0.0000      900
  3.4840   1.7420 151.0000 185.0000  59.3808   5.8100      901
  3.4840   1.7420 151.0000 190.0000  59.7475  11.5915      902
  3.4840   1.7420 151.0000 195.0000  60.3526  17.3176      903
  3.4840   1.7420 151.0000 200.0000  61.1872  22.9648      904
  3.4840   1.7420 151.0000 205.0000  62.2399  28.5135      905
  3.4840   1.7420 151.0000 210.0000  63.4966  33.9493      906
  3.4840   1.7420 151.0000 215.0000  64.9419  39.2628      907
  3.4840   1.7420 151.0000 220.0000  66.5592  44.4498      908
  3.4840   1.7420 151.0000 225.0000  68.3312  49.5104      909
  3.4840   1.7420 151.0000 230.0000  70.2405  54.4487      910
  3.4840   1.7420 151.0000 235.0000  72.2698  59.2721      911
  3.4840   1.7420 151.0000 240.0000  74.4024  63.9906      912
  3.4840   1.7420 151.0000 245.0000  76.6215  68.6160      913
  3.4840   1.7420 151.0000 250.0000  78.9115  73.1618      914
  3.4840   1.7420 151.0000 255.0000  81.2567  77.6424      915
  3.4840   1.7420 151.0000 260.0000  83.6423  82.0727      916
  3.4840   1.7420 151.0000 265.0000  86.0537  86.4683      917
  3.4840   1.7420 151.0000 270.0000  88.4765  90.8447      918
  3.4840   1.7420 151.0000 275.0000  89.1035 264.7822      919
  3.4840   1.7420 151.0000 280.0000  86.7002 260.3970      920
  3.4840   1.7420 151.0000 285.0000  84.3281 255.9843      921
  3.4840   1.7420 151.0000 290.0000  82.0013 251.5293      922
  3.4840   1.7420 151.0000 295.0000  79.7346 247.0177      923
  3.4840   1.7420 151.0000 300.0000  77.5431 242.4360      924
  3.4840   1.7420 151.0000 305.0000  75.4420 237.7721      925
  3.4840   1.7420 151.0000 310.0000  73.4472 233.0151      926
  3.4840   1.7420 151.0000 315.0000  71.5748 228.1565      927
  3.4840   1.7420 151.0000 320.0000  69.8410 223.1899      928
  3.4840   1.7420 151.0000 325.0000  68.2621 218.1121      929
  3.4840   1.7420 151.0000 330.0000  66.8540 212.9235      930
  3.4840   1.7420 151.0000 335.0000  65.6320 207.6284      931
  3.4840   1.7420 151.0000 340.0000  64.6102 202.2354      932
  3.4840   1.7420 151.0000 345.0000  63.8013 196.7573      933
  3.4840   1.7420 151.0000 350.0000  63.2155 191.2113      934
  3.4840   1.7420 151.0000 355.0000  62.8608 185.6179      935
  3.4840   1.7420 156.0000   0.0000  67.7420 180.0000      936
  3.4840   1.7420 156.0000   5.0000  67.8377 174.6025      937
  3.4840   1.7420 156.0000  10.0000  68.1239 169.2201      938
  3.4840   1.7420 156.0000  15.0000  68.5970 163.8674      939
  3.4840   1.7420 156.0000  20.0000  69.2519 158.5573      940
  3.4840   1.7420 156.0000  25.0000  70.0812 153.3011      941
  3.4840   1.7420 156.0000  30.0000  71.0762 148.1077      942
  3.4840   1.7420 156.0000  35.0000  72.2265 142.9834      943
  3.4840   1.7420 156.0000  40.0000  73.5210 137.9320      944
  3.4840   1.7420 156.0000  45.0000  74.9476 132.9547      945
  3.4840   1.7420 156.0000  50.0000  76.4936 128.0504      946
  3.4840   1.7420 156.0000  55.0000  78.1462 123.2157      947
  3.4840   1.7420 156.0000  60.0000  79.8920 118.4453      948
  3.4840   1.7420 156.0000  65.0000  81.7181 113.7323      949
  3.4840   1.7420 156.0000  70.0000  83.6111 109.0686      950
  3.4840   1.7420 156.0000  75.0000  85.5579 104.4448      951
  3.4840   1.7420 156.0000  80.0000  87.5455  99.8508      952
  3.4840   1.7420 156.0000  85.0000  89.5610  95.2759      953
  3.4840   1.7420 156.0000  90.0000  88.4086 269.2913      954
  3.4840   1.7420 156.0000  95.0000  86.3763 273.8620      955
  3.4840   1.7420 156.0000 100.0000  84.3548 278.4479      956
  3.4840   1.7420 156.0000 105.0000  82.3574 283.0603      957
  3.4840   1.7420 156.0000 110.0000  80.3971 287.7103      958
  3.4840   1.7420 156.0000 115.0000  78.4873 292.4085      959
  3.4840   1.7420 156.0000 120.0000  76.6414 297.1647      960
  3.4840   1.7420 156.0000 125.0000  74.8731 301.9877      961
  3.4840   1.7420 156.0000 130.0000  73.1962 306.8848      962
  3.4840   1.7420 156.0000 135.0000  71.6244 311.8620      963
  3.4840   1.7420 156.0000 140.0000  70.1715 316.9228      964
  3.4840   1.7420 156.0000 145.0000  68.8509 322.0687      965
  3.4840   1.7420 156.0000 150.0000  67.6755 327.2984      966
  3.4840   1.7420 156.0000 155.0000  66.6574 332.6078      967
  3.4840   1.7420 156.0000 160.0000  65.8076 337.9895      968
  3.4840   1.7420 156.0000 165.0000  65.1359 343.4335      969
  3.4840   1.7420 156.0000 170.0000  64.6502 348.9269      970
  3.4840   1.7420 156.0000 175.0000  64.3564 354.4547      971
  3.4840   1.7420 156.0000 180.0000  64.2580   0.0000      972
  3.4840   1.7420 156.0000 185.0000  64.3564   5.5453      973
  3.4840   1.7420 156.0000 190.0000  64.6502  11.0731      974
  3.4840   1.7420 156.0000 195.0000  65.1359  16.5665      975
  3.4840   1.7420 156.0000 200.0000  65.8076  22.0105      976
  3.4840   1.7420 156.0000 205.0000  66.6574  27.3922      977
  3.4840   1.7420 156.0000 210.0000  67.6755  32.7016      978
  3.4840   1.7420 156.0000 215.0000  68.8509  37.9313      979
  3.4840   1.7420 156.0000 220.0000  70.1715  43.0772      980
  3.4840   1.7420 156.0000 225.0000  71.6244  48.1380      981
  3.4840   1.7420 156.0000 230.0000  73.1962  53.1152      982
  3.4840   1.7420 156.0000 235.0000  74.8731  58.0123      983
  3.4840   1.7420 156.0000 240.0000  76.6414  62.8353      984
  3.4840   1.7420 156.0000 245.0000  78.4873  67.5915      985
  3.4840   1.7420 156.0000 250.0000  80.3971  72.2897      986
  3.4840   1.7420 156.0000 255.0000  82.3574  76.9397      987
  3.4840   1.7420 156.0000 260.0000  84.3548  81.5521      988
  3.4840   1.7420 156.0000 265.0000  86.3763  86.1380      989
  3.4840   1.7420 156.0000 270.0000  88.4086  90.7087      990
  3.4840   1.7420 156.0000 275.0000  89.5610 264.7241      991
  3.4840   1.7420 156.0000 280.0000  87.5455 260.1492      992
  3.4840   1.7420 156.0000 285.0000  85.5579 255.5552      993
  3.4840   1.7420 156.0000 290.0000  83.6111 250.9314      994
  3.4840   1.7420 156.0000 295.0000  81.7181 246.2677      995
  3.4840   1.7420 156.0000 300.0000  79.8920 241.5547      996
  3.4840   1.7420 156.0000 305.0000  78.1462 236.7843      997
  3.4840   1.7420 156.0000 310.0000  76.4936 231.9496      998
  3.4840   1.7420 156.0000 315.0000  74.9476 227.0453      999
  3.4840   1.7420 156.0000 320.0000  73.5210 222.0680     1000
  3.4840   1.7420 156.0000 325.0000  72.2265 217.0166     1001
  3.4840   1.7420 156.0000 330.0000  71.0762 211.8923     1002
  3.4840   1.7420 156.0000 335.0000  70.0812 206.6989     1003
  3.4840   1.7420 156.0000 340.0000  69.2519 201.4427     1004
  3.4840   1.7420 156.0000 345.0000  68.5970 196.1326     1005
  3.4840   1.7420 156.0000 350.0000  68.1239 190.7799     1006
  3.4840   1.7420 156.0000 355.0000  67.8377 185.3975     1007
  3.4840   1.7420 161.0000   0.0000  72.7420 180.0000     1008
  3.4840   1.7420 161.0000   5.0000  72.8163 174.7682     1009
  3.4840   1.7420 161.0000  10.0000  73.0384 169.5451     1010
  3.4840   1.7420 161.0000  15.0000  73.4061 164.3392     1011
  3.4840   1.7420 161.0000  20.0000  73.9158 159.1582     1012
  3.4840   1.7420 161.0000  25.0000  74.5626 154.0088     1013
  3.4840   1.7420 161.0000  30.0000  75.3403 148.8965     1014
  3.4840   1.7420 161.0000  35.0000  76.2419 143.8255     1015
  3.4840   1.7420 161.0000  40.0000  77.2592 138.7985     1016
  3.4840   1.7420 161.0000  45.0000  78.3834 133.8166     1017
  3.4840   1.7420 161.0000  50.0000  79.6051 128.8796     1018
  3.4840   1.7420 161.0000  55.0000  80.9144 123.9858     1019
  3.4840   1.7420 161.0000  60.0000  82.3012 119.1322     1020
  3.4840   1.7420 161.0000  65.0000  83.7547 114.3148     1021
  3.4840   1.7420 161.0000  70.0000  85.2645 109.5285     1022
  3.4840   1.7420 161.0000  75.0000  86.8195 104.7673     1023
  3.4840   1.7420 161.0000  80.0000  88.4090 100.0249     1024
  3.4840   1.7420 161.0000  85.0000  89.9782 264.7060     1025
  3.4840   1.7420 161.0000  90.0000  88.3529 269.4327     1026
  3.4840   1.7420 161.0000  95.0000  86.7264 274.1628     1027
  3.4840   1.7420 161.0000 100.0000  85.1095 278.9039     1028
  3.4840   1.7420 161.0000 105.0000  83.5136 283.6636     1029
  3.4840   1.7420 161.0000 110.0000  81.9497 288.4489     1030
  3.4840   1.7420 161.0000 115.0000  80.4290 293.2666     1031
  3.4840   1.7420 161.0000 120.0000  78.9625 298.1228     1032
  3.4840   1.7420 161.0000 125.0000  77.5613 303.0227     1033
  3.4840   1.7420 161.0000 130.0000  76.2364 307.9706     1034
  3.4840   1.7420 161.0000 135.0000  74.9983 312.9694     1035
  3.4840   1.7420 161.0000 140.0000  73.8575 318.0207     1036
  3.4840   1.7420 161.0000 145.0000  72.8239 323.1248     1037
  3.4840   1.7420 161.0000 150.0000  71.9069 328.2801     1038
  3.4840   1.7420 161.0000 155.0000  71.1149 333.4835     1039
  3.4840   1.7420 161.0000 160.0000  70.4557 338.7300     1040
  3.4840   1.7420 161.0000 165.0000  69.9358 344.0133     1041
  3.4840   1.7420 161.0000 170.0000  69.5606 349.3255     1042
  3.4840   1.7420 161.0000 175.0000  69.3338 354.6576     1043
  3.4840   1.7420 161.0000 180.0000  69.2580   0.0000     1044
  3.4840   1.7420 161.0000 185.0000  69.3338   5.3424     1045
  3.4840   1.7420 161.0000 190.0000  69.5606  10.6745     1046
  3.4840   1.7420 161.0000 195.0000  69.9358  15.9867     1047
  3.4840   1.7420 161.0000 200.0000  70.4557  21.2700     1048
  3.4840   1.7420 161.0000 205.0000  71.1149  26.5165     1049
  3.4840   1.7420 161.0000 210.0000  71.9069  31.7199     1050
  3.4840   1.7420 161.0000 215.0000  72.8239  36.8752     1051
  3.4840   1.7420 161.0000 220.0000  73.8575  41.9793     1052
  3.4840   1.7420 161.0000 225.0000  74.9983  47.0306     1053
  3.4840   1.7420 161.0000 230.0000  76.2364  52.0294     1054
  3.4840   1.7420 161.0000 235.0000  77.5613  56.9773     1055
  3.4840   1.7420 161.0000 240.0000  78.9625  61.8772     1056
  3.4840   1.7420 161.0000 245.0000  80.4290  66.7334     1057
  3.4840   1.7420 161.0000 250.0000  81.9497  71.5511     1058
  3.4840   1.7420 161.0000 255.0000  83.5136  76.3364     1059
  3.4840   1.7420 161.0000 260.0000  85.1095  81.0961     1060
  3.4840   1.7420 161.0000 265.0000  86.7264  85.8372     1061
  3.4840   1.7420 161.0000 270.0000  88.3529  90.5673     1062
  3.4840   1.7420 161.0000 275.0000  89.9782  95.2940     1063
  3.4840   1.7420 161.0000 280.0000  88.4090 259.9751     1064
  3.4840   1.7420 161.0000 285.0000  86.8195 255.2327     1065
  3.4840   1.7420 161.0000 290.0000  85.2645 250.4715     1066
  3.4840   1.7420 161.0000 295.0000  83.7547 245.6852     1067
  3.4840   1.7420 161.0000 300.0000  82.3012 240.8678     1068
  3.4840   1.7420 161.0000 305.0000  80.9144 236.0142     1069
  3.4840   1.7420 161.0000 310.0000  79.6051 231.1204     1070
  3.4840   1.7420 161.0000 315.0000  78.3834 226.1834     1071
  3.4840   1.7420 161.0000 320.0000  77.2592 221.2015     1072
  3.4840   1.7420 161.0000 325.0000  76.2419 216.1745     1073
  3.4840   1.7420 161.0000 330.0000  75.3403 211.1035     1074
  3.4840   1.7420 161.0000 335.0000  74.5626 205.9912     1075
  3.4840   1.7420 161.0000 340.0000  73.9158 200.8418     1076
  3.4840   1.7420 161.0000 345.0000  73.4061 195.6608     1077
  3.4840   1.7420 161.0000 350.0000  73.0384 190.4549     1078
  3.4840   1.7420 161.0000 355.0000  72.8163 185.2318     1079
  3.4840   1.7420 166.0000   0.0000  77.7420 180.0000     1080
  3.4840   1.7420 166.0000   5.0000  77.7959 174.8865     1081
  3.4840   1.7420 166.0000  10.0000  77.9573 169.7774     1082
  3.4840   1.7420 166.0000  15.0000  78.2247 164.6770     1083
  3.4840   1.7420 166.0000  20.0000  78.5957 159.5893     1084
  3.4840   1.7420 166.0000  25.0000  79.0672 154.5177     1085
  3.4840   1.7420 166.0000  30.0000  79.6350 149.4653     1086
  3.4840   1.7420 166.0000  35.0000  80.2945 144.4343     1087
  3.4840   1.7420 166.0000  40.0000  81.0402 139.4262     1088
  3.4840   1.7420 166.0000  45.0000  81.8659 134.4418     1089
  3.4840   1.7420 166.0000  50.0000  82.7652 129.4810     1090
  3.4840   1.7420 166.0000  55.0000  83.7308 124.5431     1091
  3.4840   1.7420 166.0000  60.0000  84.7553 119.6267     1092
  3.4840   1.7420 166.0000  65.0000  85.8311 114.7296     1093
  3.4840   1.7420 166.0000  70.0000  86.9500 109.8490     1094
  3.4840   1.7420 166.0000  75.0000  88.1038 104.9817     1095
  3.4840   1.7420 166.0000  80.0000  89.2841 100.1241     1096
  3.4840   1.7420 166.0000  85.0000  89.5175 264.7279     1097
  3.4840   1.7420 166.0000  90.0000  88.3098 269.5784     1098
  3.4840   1.7420 166.0000  95.0000  87.1013 274.4318     1099
  3.4840   1.7420 166.0000 100.0000  85.9007 279.2923     1100
  3.4840   1.7420 166.0000 105.0000  84.7167 284.1641     1101
  3.4840   1.7420 166.0000 110.0000  83.5579 289.0513     1102
  3.4840   1.7420 166.0000 115.0000  82.4328 293.9574     1103
  3.4840   1.7420 166.0000 120.0000  81.3498 298.8857     1104
  3.4840   1.7420 166.0000 125.0000  80.3173 303.8389     1105
  3.4840   1.7420 166.0000 130.0000  79.3430 308.8191     1106
  3.4840   1.7420 166.0000 135.0000  78.4349 313.8276     1107
  3.4840   1.7420 166.0000 140.0000  77.6001 318.8650     1108
  3.4840   1.7420 166.0000 145.0000  76.8456 323.9309     1109
  3.4840   1.7420 166.0000 150.0000  76.1778 329.0244     1110
  3.4840   1.7420 166.0000 155.0000  75.6023 334.1434     1111
  3.4840   1.7420 166.0000 160.0000  75.1243 339.2852     1112
  3.4840   1.7420 166.0000 165.0000  74.7479 344.4461     1113
  3.4840   1.7420 166.0000 170.0000  74.4766 349.6221     1114
  3.4840   1.7420 166.0000 175.0000  74.3128 354.8084     1115
  3.4840   1.7420 166.0000 180.0000  74.2580   0.0000     1116
  3.4840   1.7420 166.0000 185.0000  74.3128   5.1916     1117
  3.4840   1.7420 166.0000 190.0000  74.4766  10.3779     1118
  3.4840   1.7420 166.0000 195.0000  74.7479  15.5539     1119
  3.4840   1.7420 166.0000 200.0000  75.1243  20.7148     1120
  3.4840   1.7420 166.0000 205.0000  75.6023  25.8566     1121
  3.4840   1.7420 166.0000 210.0000  76.1778  30.9756     1122
  3.4840   1.7420 166.0000 215.0000  76.8456  36.0691     1123
  3.4840   1.7420 166.0000 220.0000  77.6001  41.1350     1124
  3.4840   1.7420 166.0000 225.0000  78.4349  46.1724     1125
  3.4840   1.7420 166.0000 230.0000  79.3430  51.1809     1126
  3.4840   1.7420 166.0000 235.0000  80.3173  56.1611     1127
  3.4840   1.7420 166.0000 240.0000  81.3498  61.1143     1128
  3.4840   1.7420 166.0000 245.0000  82.4328  66.0426     1129
  3.4840   1.7420 166.0000 250.0000  83.5579  70.9487     1130
  3.4840   1.7420 166.0000 255.0000  84.7167  75.8359     1131
  3.4840   1.7420 166.0000 260.0000  85.9007  80.7077     1132
  3.4840   1.7420 166.0000 265.0000  87.1013  85.5682     1133
  3.4840   1.7420 166.0000 270.0000  88.3098  90.4216     1134
  3.4840   1.7420 166.0000 275.0000  89.5175  95.2721     1135
  3.4840   1.7420 166.0000 280.0000  89.2841 259.8759     1136
  3.4840   1.7420 166.0000 285.0000  88.1038 255.0183     1137
  3.4840   1.7420 166.0000 290.0000  86.9500 250.1510     1138
  3.4840   1.7420 166.0000 295.0000  85.8311 245.2704     1139
  3.4840   1.7420 166.0000 300.0000  84.7553 240.3733     1140
  3.4840   1.7420 166.0000 305.0000  83.7308 235.4569     1141
  3.4840   1.7420 166.0000 310.0000  82.7652 230.5190     1142
  3.4840   1.7420 166.0000 315.0000  81.8659 225.5582     1143
  3.4840   1.7420 166.0000 320.0000  81.0402 220.5738     1144
  3.4840   1.7420 166.0000 325.0000  80.2945 215.5657     1145
  3.4840   1.7420 166.0000 330.0000  79.6350 210.5347     1146
  3.4840   1.7420 166.0000 335.0000  79.0672 205.4823     1147
  3.4840   1.7420 166.0000 340.0000  78.5957 200.4107     1148
  3.4840   1.7420 166.0000 345.0000  78.2247 195.3230     1149
  3.4840   1.7420 166.0000 350.0000  77.9573 190.2226     1150
  3.4840   1.7420 166.0000 355.0000  77.7959 185.1135     1151
  3.4840   1.7420 171.0000   0.0000  82.7420 180.0000     1152
  3.4840   1.7420 171.0000   5.0000  82.7764 174.9622     1153
  3.4840   1.7420 171.0000  10.0000  82.8792 169.9262     1154
  3.4840   1.7420 171.0000  15.0000  83.0496 164.8935     1155
  3.4840   1.7420 171.0000  20.0000  83.2863 159.8657     1156
  3.4840   1.7420 171.0000  25.0000  83.5874 154.8441     1157
  3.4840   1.7420 171.0000  30.0000  83.9504 149.8300     1158
  3.4840   1.7420 171.0000  35.0000  84.3725 144.8242     1159
  3.4840   1.7420 171.0000  40.0000  84.8504 139.8273     1160
  3.4840   1.7420 171.0000  45.0000  85.3804 134.8396     1161
  3.4840   1.7420 171.0000  50.0000  85.9583 129.8612     1162
  3.4840   1.7420 171.0000  55.0000  86.5796 124.8917     1163
  3.4840   1.7420 171.0000  60.0000  87.2398 119.9306     1164
  3.4840   1.7420 171.0000  65.0000  87.9336 114.9769     1165
  3.4840   1.7420 171.0000  70.0000  88.6560 110.0294     1166
  3.4840   1.7420 171.0000  75.0000  89.4015 105.0869     1167
  3.4840   1.7420 171.0000  80.0000  89.8354 259.8522     1168
  3.4840   1.7420 171.0000  85.0000  89.0605 264.7898     1169
  3.4840   1.7420 171.0000  90.0000  88.2795 269.7274     1170
  3.4840   1.7420 171.0000  95.0000  87.4981 274.6670     1171
  3.4840   1.7420 171.0000 100.0000  86.7222 279.6105     1172
  3.4840   1.7420 171.0000 105.0000  85.9576 284.5594     1173
  3.4840   1.7420 171.0000 110.0000  85.2100 289.5157     1174
  3.4840   1.7420 171.0000 115.0000  84.4850 294.4806     1175
  3.4840   1.7420 171.0000 120.0000  83.7881 299.4555     1176
  3.4840   1.7420 171.0000 125.0000  83.1246 304.4415     1177
  3.4840   1.7420 171.0000 130.0000  82.4996 309.4393     1178
  3.4840   1.7420 171.0000 135.0000  81.9180 314.4493     1179
  3.4840   1.7420 171.0000 140.0000  81.3844 319.4717     1180
  3.4840   1.7420 171.0000 145.0000  80.9028 324.5062     1181
  3.4840   1.7420 171.0000 150.0000  80.4773 329.5523     1182
  3.4840   1.7420 171.0000 155.0000  80.1112 334.6090     1183
  3.4840   1.7420 171.0000 160.0000  79.8074 339.6751     1184
  3.4840   1.7420 171.0000 165.0000  79.5686 344.7491     1185
  3.4840   1.7420 171.0000 170.0000  79.3965 349.8292     1186
  3.4840   1.7420 171.0000 175.0000  79.2927 354.9135     1187
  3.4840   1.7420 171.0000 180.0000  79.2580   0.0000     1188
  3.4840   1.7420 171.0000 185.0000  79.2927   5.0865     1189
  3.4840   1.7420 171.0000 190.0000  79.3965  10.1708     1190
  3.4840   1.7420 171.0000 195.0000  79.5686  15.2509     1191
  3.4840   1.7420 171.0000 200.0000  79.8074  20.3249     1192
  3.4840   1.7420 171.0000 205.0000  80.1112  25.3910     1193
  3.4840   1.7420 171.0000 210.0000  80.4773  30.4477     1194
  3.4840   1.7420 171.0000 215.0000  80.9028  35.4938     1195
  3.4840   1.7420 171.0000 220.0000  81.3844  40.5283     1196
  3.4840   1.7420 171.0000 225.0000  81.9180  45.5507     1197
  3.4840   1.7420 171.0000 230.0000  82.4996  50.5607     1198
  3.4840   1.7420 171.0000 235.0000  83.1246  55.5585     1199
  3.4840   1.7420 171.0000 240.0000  83.7881  60.5445     1200
  3.4840   1.7420 171.0000 245.0000  84.4850  65.5194     1201
  3.4840   1.7420 171.0000 250.0000  85.2100  70.4843     1202
  3.4840   1.7420 171.0000 255.0000  85.9576  75.4406     1203
  3.4840   1.7420 171.0000 260.0000  86.7222  80.3895     1204
  3.4840   1.7420 171.0000 265.0000  87.4981  85.3330     1205
  3.4840   1.7420 171.0000 270.0000  88.2795  90.2726     1206
  3.4840   1.7420 171.0000 275.0000  89.0605  95.2102     1207
  3.4840   1.7420 171.0000 280.0000  89.8354 100.1478     1208
  3.4840   1.7420 171.0000 285.0000  89.4015 254.9131     1209
  3.4840   1.7420 171.0000 290.0000  88.6560 249.9706     1210
  3.4840   1.7420 171.0000 295.0000  87.9336 245.0231     1211
  3.4840   1.7420 171.0000 300.0000  87.2398 240.0694     1212
  3.4840   1.7420 171.0000 305.0000  86.5796 235.1083     1213
  3.4840   1.7420 171.0000 310.0000  85.9583 230.1388     1214
  3.4840   1.7420 171.0000 315.0000  85.3804 225.1604     1215
  3.4840   1.7420 171.0000 320.0000  84.8504 220.1727     1216
  3.4840   1.7420 171.0000 325.0000  84.3725 215.1758     1217
  3.4840   1.7420 171.0000 330.0000  83.9504 210.1700     1218
  3.4840   1.7420 171.0000 335.0000  83.5874 205.1559     1219
  3.4840   1.7420 171.0000 340.0000  83.2863 200.1343     1220
  3.4840   1.7420 171.0000 345.0000  83.0496 195.1065     1221
  3.4840   1.7420 171.0000 350.0000  82.8792 190.0738     1222
  3.4840   1.7420 171.0000 355.0000  82.7764 185.0378     1223
  3.4840   1.7420 176.0000   0.0000  87.7420 180.0000     1224
  3.4840   1.7420 176.0000   5.0000  87.7572 174.9985     1225
  3.4840   1.7420 176.0000  10.0000  87.8027 169.9972     1226
  3.4840   1.7420 176.0000  15.0000  87.8782 164.9966     1227
  3.4840   1.7420 176.0000  20.0000  87.9831 159.9967     1228
  3.4840   1.7420 176.0000  25.0000  88.1165 154.9979     1229
  3.4840   1.7420 176.0000  30.0000  88.2775 150.0003     1230
  3.4840   1.7420 176.0000  35.0000  88.4649 145.0041     1231
  3.4840   1.7420 176.0000  40.0000  88.6771 140.0094     1232
  3.4840   1.7420 176.0000  45.0000  88.9126 135.0162     1233
  3.4840   1.7420 176.0000  50.0000  89.1696 130.0244     1234
  3.4840   1.7420 176.0000  55.0000  89.4461 125.0340     1235
  3.4840   1.7420 176.0000  60.0000  89.7400 120.0448     1236
  3.4840   1.7420 176.0000  65.0000  89.9508 244.9433     1237
  3.4840   1.7420 176.0000  70.0000  89.6288 249.9307     1238
  3.4840   1.7420 176.0000  75.0000  89.2965 254.9175     1239
  3.4840   1.7420 176.0000  80.0000  88.9562 259.9042     1240
  3.4840   1.7420 176.0000  85.0000  88.6106 264.8910     1241
  3.4840   1.7420 176.0000  90.0000  88.2622 269.8784     1242
  3.4840   1.7420 176.0000  95.0000  87.9139 274.8668     1243
  3.4840   1.7420 176.0000 100.0000  87.5681 279.8564     1244
  3.4840   1.7420 176.0000 105.0000  87.2275 284.8476     1245
  3.4840   1.7420 176.0000 110.0000  86.8947 289.8408     1246
  3.4840   1.7420 176.0000 115.0000  86.5721 294.8362     1247
  3.4840   1.7420 176.0000 120.0000  86.2624 299.8340     1248
  3.4840   1.7420 176.0000 125.0000  85.9678 304.8345     1249
  3.4840   1.7420 176.0000 130.0000  85.6906 309.8378     1250
  3.4840   1.7420 176.0000 135.0000  85.4329 314.8438     1251
  3.4840   1.7420 176.0000 140.0000  85.1966 319.8527     1252
  3.4840   1.7420 176.0000 145.0000  84.9837 324.8642     1253
  3.4840   1.7420 176.0000 150.0000  84.7957 329.8783     1254
  3.4840   1.7420 176.0000 155.0000  84.6341 334.8948     1255
  3.4840   1.7420 176.0000 160.0000  84.5001 339.9132     1256
  3.4840   1.7420 176.0000 165.0000  84.3948 344.9334     1257
  3.4840   1.7420 176.0000 170.0000  84.3190 349.9548     1258
  3.4840   1.7420 176.0000 175.0000  84.2733 354.9772     1259
  3.4840   1.7420 176.0000 180.0000  84.2580   0.0000     1260
  3.4840   1.7420 176.0000 185.0000  84.2733   5.0228     1261
  3.4840   1.7420 176.0000 190.0000  84.3190  10.0452     1262
  3.4840   1.7420 176.0000 195.0000  84.3948  15.0666     1263
  3.4840   1.7420 176.0000 200.0000  84.5001  20.0868     1264
  3.4840   1.7420 176.0000 205.0000  84.6341  25.1052     1265
  3.4840   1.7420 176.0000 210.0000  84.7957  30.1217     1266
  3.4840   1.7420 176.0000 215.0000  84.9837  35.1358     1267
  3.4840   1.7420 176.0000 220.0000  85.1966  40.1473     1268
  3.4840   1.7420 176.0000 225.0000  85.4329  45.1562     1269
  3.4840   1.7420 176.0000 230.0000  85.6906  50.1622     1270
  3.4840   1.7420 176.0000 235.0000  85.9678  55.1655     1271
  3.4840   1.7420 176.0000 240.0000  86.2624  60.1660     1272
  3.4840   1.7420 176.0000 245.0000  86.5721  65.1638     1273
  3.4840   1.7420 176.0000 250.0000  86.8947  70.1592     1274
  3.4840   1.7420 176.0000 255.0000  87.2275  75.1524     1275
  3.4840   1.7420 176.0000 260.0000  87.5681  80.1436     1276
  3.4840   1.7420 176.0000 265.0000  87.9139  85.1332     1277
  3.4840   1.7420 176.0000 270.0000  88.2622  90.1216     1278
  3.4840   1.7420 176.0000 275.0000  88.6106  95.1090     1279
  3.4840   1.7420 176.0000 280.0000  88.9562 100.0958     1280
  3.4840   1.7420 176.0000 285.0000  89.2965 105.0825     1281
  3.4840   1.7420 176.0000 290.0000  89.6288 110.0693     1282
  3.4840   1.7420 176.0000 295.0000  89.9508 115.0567     1283
  3.4840   1.7420 176.0000 300.0000  89.7400 239.9552     1284
  3.4840   1.7420 176.0000 305.0000  89.4461 234.9660     1285
  3.4840   1.7420 176.0000 310.0000  89.1696 229.9756     1286
  3.4840   1.7420 176.0000 315.0000  88.9126 224.9838     1287
  3.4840   1.7420 176.0000 320.0000  88.6771 219.9906     1288
  3.4840   1.7420 176.0000 325.0000  88.4649 214.9959     1289
  3.4840   1.7420 176.0000 330.0000  88.2775 209.9997     1290
  3.4840   1.7420 176.0000 335.0000  88.1165 205.0021     1291
  3.4840   1.7420 176.0000 340.0000  87.9831 200.0033     1292
  3.4840   1.7420 176.0000 345.0000  87.8782 195.0034     1293
  3.4840   1.7420 176.0000 350.0000  87.8027 190.0028     1294
  3.4840   1.7420 176.0000 355.0000  87.7572 185.0015     1295
