
test_ang_tranf.exe: 2016- 5-18 15:32:18
#2theta theta omega gamma alpha beta
  3.4840   1.7420   1.0000   0.0000   0.7420 180.0000        0
  3.4840   1.7420   1.0000   5.0000   5.0533  98.4980        1
  3.4840   1.7420   1.0000  10.0000  10.0246  94.3539        2
  3.4840   1.7420   1.0000  15.0000  15.0139  92.9970        3
  3.4840   1.7420   1.0000  20.0000  20.0078  92.3454        4
  3.4840   1.7420   1.0000  25.0000  25.0036  91.9774        5
  3.4840   1.7420   1.0000  30.0000  30.0002  91.7520        6
  3.4840   1.7420   1.0000  35.0000  34.9973  91.6091        7
  3.4840   1.7420   1.0000  40.0000  39.9947  91.5184        8
  3.4840   1.7420   1.0000  45.0000  44.9922  91.4637        9
  3.4840   1.7420   1.0000  50.0000  49.9899  91.4350       10
  3.4840   1.7420   1.0000  55.0000  54.9875  91.4265       11
  3.4840   1.7420   1.0000  60.0000  59.9852  91.4342       12
  3.4840   1.7420   1.0000  65.0000  64.9829  91.4558       13
  3.4840   1.7420   1.0000  70.0000  69.9805  91.4898       14
  3.4840   1.7420   1.0000  75.0000  74.9780  91.5354       15
  3.4840   1.7420   1.0000  80.0000  79.9753  91.5924       16
  3.4840   1.7420   1.0000  85.0000  84.9726  91.6610       17
  3.4840   1.7420   1.0000  90.0000  89.9696  91.7417       18
  3.4840   1.7420   1.0000  95.0000  85.0336 268.1642       19
  3.4840   1.7420   1.0000 100.0000  80.0371 268.0553       20
  3.4840   1.7420   1.0000 105.0000  75.0409 267.9292       21
  3.4840   1.7420   1.0000 110.0000  70.0452 267.7831       22
  3.4840   1.7420   1.0000 115.0000  65.0499 267.6127       23
  3.4840   1.7420   1.0000 120.0000  60.0554 267.4126       24
  3.4840   1.7420   1.0000 125.0000  55.0617 267.1752       25
  3.4840   1.7420   1.0000 130.0000  50.0692 266.8896       26
  3.4840   1.7420   1.0000 135.0000  45.0781 266.5403       27
  3.4840   1.7420   1.0000 140.0000  40.0892 266.1038       28
  3.4840   1.7420   1.0000 145.0000  35.1031 265.5434       29
  3.4840   1.7420   1.0000 150.0000  30.1215 264.7978       30
  3.4840   1.7420   1.0000 155.0000  25.1470 263.7579       31
  3.4840   1.7420   1.0000 160.0000  20.1848 262.2070       32
  3.4840   1.7420   1.0000 165.0000  15.2468 259.6506       33
  3.4840   1.7420   1.0000 170.0000  10.3680 254.6721       34
  3.4840   1.7420   1.0000 175.0000   5.7020 241.2606       35
  3.4840   1.7420   1.0000 180.0000   2.7420 180.0000       36
  3.4840   1.7420   1.0000 185.0000   5.7020 118.7394       37
  3.4840   1.7420   1.0000 190.0000  10.3680 105.3279       38
  3.4840   1.7420   1.0000 195.0000  15.2468 100.3494       39
  3.4840   1.7420   1.0000 200.0000  20.1848  97.7930       40
  3.4840   1.7420   1.0000 205.0000  25.1470  96.2421       41
  3.4840   1.7420   1.0000 210.0000  30.1215  95.2022       42
  3.4840   1.7420   1.0000 215.0000  35.1031  94.4566       43
  3.4840   1.7420   1.0000 220.0000  40.0892  93.8962       44
  3.4840   1.7420   1.0000 225.0000  45.0781  93.4597       45
  3.4840   1.7420   1.0000 230.0000  50.0692  93.1104       46
  3.4840   1.7420   1.0000 235.0000  55.0617  92.8248       47
  3.4840   1.7420   1.0000 240.0000  60.0554  92.5874       48
  3.4840   1.7420   1.0000 245.0000  65.0499  92.3873       49
  3.4840   1.7420   1.0000 250.0000  70.0452  92.2169       50
  3.4840   1.7420   1.0000 255.0000  75.0409  92.0708       51
  3.4840   1.7420   1.0000 260.0000  80.0371  91.9447       52
  3.4840   1.7420   1.0000 265.0000  85.0336  91.8358       53
  3.4840   1.7420   1.0000 270.0000  89.9696 268.2583       54
  3.4840   1.7420   1.0000 275.0000  84.9726 268.3390       55
  3.4840   1.7420   1.0000 280.0000  79.9753 268.4076       56
  3.4840   1.7420   1.0000 285.0000  74.9780 268.4646       57
  3.4840   1.7420   1.0000 290.0000  69.9805 268.5102       58
  3.4840   1.7420   1.0000 295.0000  64.9829 268.5442       59
  3.4840   1.7420   1.0000 300.0000  59.9852 268.5658       60
  3.4840   1.7420   1.0000 305.0000  54.9875 268.5735       61
  3.4840   1.7420   1.0000 310.0000  49.9899 268.5650       62
  3.4840   1.7420   1.0000 315.0000  44.9922 268.5363       63
  3.4840   1.7420   1.0000 320.0000  39.9947 268.4816       64
  3.4840   1.7420   1.0000 325.0000  34.9973 268.3909       65
  3.4840   1.7420   1.0000 330.0000  30.0002 268.2480       66
  3.4840   1.7420   1.0000 335.0000  25.0036 268.0226       67
  3.4840   1.7420   1.0000 340.0000  20.0078 267.6546       68
  3.4840   1.7420   1.0000 345.0000  15.0139 267.0030       69
  3.4840   1.7420   1.0000 350.0000  10.0246 265.6461       70
  3.4840   1.7420   1.0000 355.0000   5.0533 261.5020       71
  3.4840   1.7420   6.0000   0.0000   4.2580   0.0000       72
  3.4840   1.7420   6.0000   5.0000   6.5578  49.7111       73
  3.4840   1.7420   6.0000  10.0000  10.8456  67.2844       74
  3.4840   1.7420   6.0000  15.0000  15.5562  74.7174       75
  3.4840   1.7420   6.0000  20.0000  20.3986  78.7587       76
  3.4840   1.7420   6.0000  25.0000  25.2971  81.3240       77
  3.4840   1.7420   6.0000  30.0000  30.2244  83.1258       78
  3.4840   1.7420   6.0000  35.0000  35.1681  84.4852       79
  3.4840   1.7420   6.0000  40.0000  40.1221  85.5675       80
  3.4840   1.7420   6.0000  45.0000  45.0827  86.4663       81
  3.4840   1.7420   6.0000  50.0000  50.0478  87.2390       82
  3.4840   1.7420   6.0000  55.0000  55.0160  87.9229       83
  3.4840   1.7420   6.0000  60.0000  59.9862  88.5436       84
  3.4840   1.7420   6.0000  65.0000  64.9578  89.1195       85
  3.4840   1.7420   6.0000  70.0000  69.9301  89.6644       86
  3.4840   1.7420   6.0000  75.0000  74.9027  90.1894       87
  3.4840   1.7420   6.0000  80.0000  79.8751  90.7037       88
  3.4840   1.7420   6.0000  85.0000  84.8470  91.2155       89
  3.4840   1.7420   6.0000  90.0000  89.8179  91.7325       90
  3.4840   1.7420   6.0000  95.0000  85.2125 267.7376       91
  3.4840   1.7420   6.0000 100.0000  80.2448 267.1865       92
  3.4840   1.7420   6.0000 105.0000  75.2795 266.6051       93
  3.4840   1.7420   6.0000 110.0000  70.3173 265.9826       94
  3.4840   1.7420   6.0000 115.0000  65.3590 265.3057       95
  3.4840   1.7420   6.0000 120.0000  60.4058 264.5576       96
  3.4840   1.7420   6.0000 125.0000  55.4592 263.7162       97
  3.4840   1.7420   6.0000 130.0000  50.5211 262.7513       98
  3.4840   1.7420   6.0000 135.0000  45.5946 261.6204       99
  3.4840   1.7420   6.0000 140.0000  40.6838 260.2614      100
  3.4840   1.7420   6.0000 145.0000  35.7954 258.5791      101
  3.4840   1.7420   6.0000 150.0000  30.9401 256.4208      102
  3.4840   1.7420   6.0000 155.0000  26.1363 253.5254      103
  3.4840   1.7420   6.0000 160.0000  21.4189 249.4126      104
  3.4840   1.7420   6.0000 165.0000  16.8607 243.1164      105
  3.4840   1.7420   6.0000 170.0000  12.6352 232.5121      106
  3.4840   1.7420   6.0000 175.0000   9.2123 212.9671      107
  3.4840   1.7420   6.0000 180.0000   7.7420 180.0000      108
  3.4840   1.7420   6.0000 185.0000   9.2123 147.0329      109
  3.4840   1.7420   6.0000 190.0000  12.6352 127.4879      110
  3.4840   1.7420   6.0000 195.0000  16.8607 116.8836      111
  3.4840   1.7420   6.0000 200.0000  21.4189 110.5874      112
  3.4840   1.7420   6.0000 205.0000  26.1363 106.4746      113
  3.4840   1.7420   6.0000 210.0000  30.9401 103.5792      114
  3.4840   1.7420   6.0000 215.0000  35.7954 101.4209      115
  3.4840   1.7420   6.0000 220.0000  40.6838  99.7386      116
  3.4840   1.7420   6.0000 225.0000  45.5946  98.3796      117
  3.4840   1.7420   6.0000 230.0000  50.5211  97.2487      118
  3.4840   1.7420   6.0000 235.0000  55.4592  96.2838      119
  3.4840   1.7420   6.0000 240.0000  60.4058  95.4424      120
  3.4840   1.7420   6.0000 245.0000  65.3590  94.6943      121
  3.4840   1.7420   6.0000 250.0000  70.3173  94.0174      122
  3.4840   1.7420   6.0000 255.0000  75.2795  93.3949      123
  3.4840   1.7420   6.0000 260.0000  80.2448  92.8135      124
  3.4840   1.7420   6.0000 265.0000  85.2125  92.2624      125
  3.4840   1.7420   6.0000 270.0000  89.8179 268.2675      126
  3.4840   1.7420   6.0000 275.0000  84.8470 268.7845      127
  3.4840   1.7420   6.0000 280.0000  79.8751 269.2963      128
  3.4840   1.7420   6.0000 285.0000  74.9027 269.8106      129
  3.4840   1.7420   6.0000 290.0000  69.9301 270.3356      130
  3.4840   1.7420   6.0000 295.0000  64.9578 270.8805      131
  3.4840   1.7420   6.0000 300.0000  59.9862 271.4564      132
  3.4840   1.7420   6.0000 305.0000  55.0160 272.0771      133
  3.4840   1.7420   6.0000 310.0000  50.0478 272.7610      134
  3.4840   1.7420   6.0000 315.0000  45.0827 273.5337      135
  3.4840   1.7420   6.0000 320.0000  40.1221 274.4325      136
  3.4840   1.7420   6.0000 325.0000  35.1681 275.5148      137
  3.4840   1.7420   6.0000 330.0000  30.2244 276.8742      138
  3.4840   1.7420   6.0000 335.0000  25.2971 278.6760      139
  3.4840   1.7420   6.0000 340.0000  20.3986 281.2413      140
  3.4840   1.7420   6.0000 345.0000  15.5562 285.2826      141
  3.4840   1.7420   6.0000 350.0000  10.8456 292.7156      142
  3.4840   1.7420   6.0000 355.0000   6.5578 310.2889      143
  3.4840   1.7420  11.0000   0.0000   9.2580   0.0000      144
  3.4840   1.7420  11.0000   5.0000  10.5046  28.5438      145
  3.4840   1.7420  11.0000  10.0000  13.5740  47.6913      146
  3.4840   1.7420  11.0000  15.0000  17.5334  59.1729      147
  3.4840   1.7420  11.0000  20.0000  21.9053  66.3968      148
  3.4840   1.7420  11.0000  25.0000  26.4857  71.2965      149
  3.4840   1.7420  11.0000  30.0000  31.1826  74.8487      150
  3.4840   1.7420  11.0000  35.0000  35.9499  77.5678      151
  3.4840   1.7420  11.0000  40.0000  40.7625  79.7432      152
  3.4840   1.7420  11.0000  45.0000  45.6055  81.5483      153
  3.4840   1.7420  11.0000  50.0000  50.4697  83.0931      154
  3.4840   1.7420  11.0000  55.0000  55.3488  84.4505      155
  3.4840   1.7420  11.0000  60.0000  60.2387  85.6715      156
  3.4840   1.7420  11.0000  65.0000  65.1362  86.7928      157
  3.4840   1.7420  11.0000  70.0000  70.0389  87.8422      158
  3.4840   1.7420  11.0000  75.0000  74.9450  88.8417      159
  3.4840   1.7420  11.0000  80.0000  79.8527  89.8092      160
  3.4840   1.7420  11.0000  85.0000  84.7607  90.7605      161
  3.4840   1.7420  11.0000  90.0000  89.6677  91.7100      162
  3.4840   1.7420  11.0000  95.0000  85.4278 267.3284      163
  3.4840   1.7420  11.0000 100.0000  80.5272 266.3404      164
  3.4840   1.7420  11.0000 105.0000  75.6322 265.3103      165
  3.4840   1.7420  11.0000 110.0000  70.7445 264.2203      166
  3.4840   1.7420  11.0000 115.0000  65.8667 263.0490      167
  3.4840   1.7420  11.0000 120.0000  61.0015 261.7700      168
  3.4840   1.7420  11.0000 125.0000  56.1530 260.3491      169
  3.4840   1.7420  11.0000 130.0000  51.3262 258.7408      170
  3.4840   1.7420  11.0000 135.0000  46.5285 256.8825      171
  3.4840   1.7420  11.0000 140.0000  41.7702 254.6854      172
  3.4840   1.7420  11.0000 145.0000  37.0671 252.0190      173
  3.4840   1.7420  11.0000 150.0000  32.4435 248.6843      174
  3.4840   1.7420  11.0000 155.0000  27.9393 244.3668      175
  3.4840   1.7420  11.0000 160.0000  23.6231 238.5529      176
  3.4840   1.7420  11.0000 165.0000  19.6200 230.3937      177
  3.4840   1.7420  11.0000 170.0000  16.1644 218.5693      178
  3.4840   1.7420  11.0000 175.0000  13.6781 201.6172      179
  3.4840   1.7420  11.0000 180.0000  12.7420 180.0000      180
  3.4840   1.7420  11.0000 185.0000  13.6781 158.3828      181
  3.4840   1.7420  11.0000 190.0000  16.1644 141.4307      182
  3.4840   1.7420  11.0000 195.0000  19.6200 129.6063      183
  3.4840   1.7420  11.0000 200.0000  23.6231 121.4471      184
  3.4840   1.7420  11.0000 205.0000  27.9393 115.6332      185
  3.4840   1.7420  11.0000 210.0000  32.4435 111.3157      186
  3.4840   1.7420  11.0000 215.0000  37.0671 107.9810      187
  3.4840   1.7420  11.0000 220.0000  41.7702 105.3146      188
  3.4840   1.7420  11.0000 225.0000  46.5285 103.1175      189
  3.4840   1.7420  11.0000 230.0000  51.3262 101.2592      190
  3.4840   1.7420  11.0000 235.0000  56.1530  99.6509      191
  3.4840   1.7420  11.0000 240.0000  61.0015  98.2300      192
  3.4840   1.7420  11.0000 245.0000  65.8667  96.9510      193
  3.4840   1.7420  11.0000 250.0000  70.7445  95.7797      194
  3.4840   1.7420  11.0000 255.0000  75.6322  94.6897      195
  3.4840   1.7420  11.0000 260.0000  80.5272  93.6596      196
  3.4840   1.7420  11.0000 265.0000  85.4278  92.6716      197
  3.4840   1.7420  11.0000 270.0000  89.6677 268.2900      198
  3.4840   1.7420  11.0000 275.0000  84.7607 269.2395      199
  3.4840   1.7420  11.0000 280.0000  79.8527 270.1908      200
  3.4840   1.7420  11.0000 285.0000  74.9450 271.1583      201
  3.4840   1.7420  11.0000 290.0000  70.0389 272.1578      202
  3.4840   1.7420  11.0000 295.0000  65.1362 273.2072      203
  3.4840   1.7420  11.0000 300.0000  60.2387 274.3285      204
  3.4840   1.7420  11.0000 305.0000  55.3488 275.5495      205
  3.4840   1.7420  11.0000 310.0000  50.4697 276.9069      206
  3.4840   1.7420  11.0000 315.0000  45.6055 278.4517      207
  3.4840   1.7420  11.0000 320.0000  40.7625 280.2568      208
  3.4840   1.7420  11.0000 325.0000  35.9499 282.4322      209
  3.4840   1.7420  11.0000 330.0000  31.1826 285.1513      210
  3.4840   1.7420  11.0000 335.0000  26.4857 288.7035      211
  3.4840   1.7420  11.0000 340.0000  21.9053 293.6032      212
  3.4840   1.7420  11.0000 345.0000  17.5334 300.8271      213
  3.4840   1.7420  11.0000 350.0000  13.5740 312.3087      214
  3.4840   1.7420  11.0000 355.0000  10.5046 331.4562      215
  3.4840   1.7420  16.0000   0.0000  14.2580   0.0000      216
  3.4840   1.7420  16.0000   5.0000  15.0851  19.5563      217
  3.4840   1.7420  16.0000  10.0000  17.3310  35.6374      218
  3.4840   1.7420  16.0000  15.0000  20.5351  47.5185      219
  3.4840   1.7420  16.0000  20.0000  24.3210  56.1056      220
  3.4840   1.7420  16.0000  25.0000  28.4569  62.4386      221
  3.4840   1.7420  16.0000  30.0000  32.8101  67.2688      222
  3.4840   1.7420  16.0000  35.0000  37.3037  71.0844      223
  3.4840   1.7420  16.0000  40.0000  41.8917  74.1979      224
  3.4840   1.7420  16.0000  45.0000  46.5454  76.8138      225
  3.4840   1.7420  16.0000  50.0000  51.2458  79.0694      226
  3.4840   1.7420  16.0000  55.0000  55.9801  81.0598      227
  3.4840   1.7420  16.0000  60.0000  60.7391  82.8534      228
  3.4840   1.7420  16.0000  65.0000  65.5161  84.5008      229
  3.4840   1.7420  16.0000  70.0000  70.3059  86.0407      230
  3.4840   1.7420  16.0000  75.0000  75.1045  87.5040      231
  3.4840   1.7420  16.0000  80.0000  79.9083  88.9163      232
  3.4840   1.7420  16.0000  85.0000  84.7144  90.2997      233
  3.4840   1.7420  16.0000  90.0000  89.5199  91.6746      234
  3.4840   1.7420  16.0000  95.0000  85.6780 266.9398      235
  3.4840   1.7420  16.0000 100.0000  80.8822 265.5235      236
  3.4840   1.7420  16.0000 105.0000  76.0958 264.0556      237
  3.4840   1.7420  16.0000 110.0000  71.3226 262.5123      238
  3.4840   1.7420  16.0000 115.0000  66.5668 260.8657      239
  3.4840   1.7420  16.0000 120.0000  61.8339 259.0819      240
  3.4840   1.7420  16.0000 125.0000  57.1308 257.1184      241
  3.4840   1.7420  16.0000 130.0000  52.4667 254.9198      242
  3.4840   1.7420  16.0000 135.0000  47.8541 252.4123      243
  3.4840   1.7420  16.0000 140.0000  43.3103 249.4956      244
  3.4840   1.7420  16.0000 145.0000  38.8604 246.0291      245
  3.4840   1.7420  16.0000 150.0000  34.5418 241.8137      246
  3.4840   1.7420  16.0000 155.0000  30.4109 236.5639      247
  3.4840   1.7420  16.0000 160.0000  26.5565 229.8763      248
  3.4840   1.7420  16.0000 165.0000  23.1178 221.2160      249
  3.4840   1.7420  16.0000 170.0000  20.3079 210.0068      250
  3.4840   1.7420  16.0000 175.0000  18.4170 196.0062      251
  3.4840   1.7420  16.0000 180.0000  17.7420 180.0000      252
  3.4840   1.7420  16.0000 185.0000  18.4170 163.9938      253
  3.4840   1.7420  16.0000 190.0000  20.3079 149.9932      254
  3.4840   1.7420  16.0000 195.0000  23.1178 138.7840      255
  3.4840   1.7420  16.0000 200.0000  26.5565 130.1237      256
  3.4840   1.7420  16.0000 205.0000  30.4109 123.4361      257
  3.4840   1.7420  16.0000 210.0000  34.5418 118.1863      258
  3.4840   1.7420  16.0000 215.0000  38.8604 113.9709      259
  3.4840   1.7420  16.0000 220.0000  43.3103 110.5044      260
  3.4840   1.7420  16.0000 225.0000  47.8541 107.5877      261
  3.4840   1.7420  16.0000 230.0000  52.4667 105.0802      262
  3.4840   1.7420  16.0000 235.0000  57.1308 102.8816      263
  3.4840   1.7420  16.0000 240.0000  61.8339 100.9181      264
  3.4840   1.7420  16.0000 245.0000  66.5668  99.1343      265
  3.4840   1.7420  16.0000 250.0000  71.3226  97.4877      266
  3.4840   1.7420  16.0000 255.0000  76.0958  95.9444      267
  3.4840   1.7420  16.0000 260.0000  80.8822  94.4765      268
  3.4840   1.7420  16.0000 265.0000  85.6780  93.0602      269
  3.4840   1.7420  16.0000 270.0000  89.5199 268.3254      270
  3.4840   1.7420  16.0000 275.0000  84.7144 269.7003      271
  3.4840   1.7420  16.0000 280.0000  79.9083 271.0837      272
  3.4840   1.7420  16.0000 285.0000  75.1045 272.4960      273
  3.4840   1.7420  16.0000 290.0000  70.3059 273.9593      274
  3.4840   1.7420  16.0000 295.0000  65.5161 275.4992      275
  3.4840   1.7420  16.0000 300.0000  60.7391 277.1466      276
  3.4840   1.7420  16.0000 305.0000  55.9801 278.9402      277
  3.4840   1.7420  16.0000 310.0000  51.2458 280.9306      278
  3.4840   1.7420  16.0000 315.0000  46.5454 283.1862      279
  3.4840   1.7420  16.0000 320.0000  41.8917 285.8021      280
  3.4840   1.7420  16.0000 325.0000  37.3037 288.9156      281
  3.4840   1.7420  16.0000 330.0000  32.8101 292.7312      282
  3.4840   1.7420  16.0000 335.0000  28.4569 297.5614      283
  3.4840   1.7420  16.0000 340.0000  24.3210 303.8944      284
  3.4840   1.7420  16.0000 345.0000  20.5351 312.4815      285
  3.4840   1.7420  16.0000 350.0000  17.3310 324.3626      286
  3.4840   1.7420  16.0000 355.0000  15.0851 340.4437      287
  3.4840   1.7420  21.0000   0.0000  19.2580   0.0000      288
  3.4840   1.7420  21.0000   5.0000  19.8656  14.8542      289
  3.4840   1.7420  21.0000  10.0000  21.5860  28.1501      290
  3.4840   1.7420  21.0000  15.0000  24.1823  39.1629      291
  3.4840   1.7420  21.0000  20.0000  27.4060  47.9624      292
  3.4840   1.7420  21.0000  25.0000  31.0615  54.9565      293
  3.4840   1.7420  21.0000  30.0000  35.0127  60.5802      294
  3.4840   1.7420  21.0000  35.0000  39.1691  65.1889      295
  3.4840   1.7420  21.0000  40.0000  43.4706  69.0474      296
  3.4840   1.7420  21.0000  45.0000  47.8766  72.3482      297
  3.4840   1.7420  21.0000  50.0000  52.3591  75.2305      298
  3.4840   1.7420  21.0000  55.0000  56.8983  77.7966      299
  3.4840   1.7420  21.0000  60.0000  61.4798  80.1228      300
  3.4840   1.7420  21.0000  65.0000  66.0926  82.2676      301
  3.4840   1.7420  21.0000  70.0000  70.7282  84.2769      302
  3.4840   1.7420  21.0000  75.0000  75.3798  86.1880      303
  3.4840   1.7420  21.0000  80.0000  80.0416  88.0322      304
  3.4840   1.7420  21.0000  85.0000  84.7085  89.8366      305
  3.4840   1.7420  21.0000  90.0000  89.3758  91.6264      306
  3.4840   1.7420  21.0000  95.0000  85.9610 266.5747      307
  3.4840   1.7420  21.0000 100.0000  81.3067 264.7424      308
  3.4840   1.7420  21.0000 105.0000  76.6663 262.8513      309
  3.4840   1.7420  21.0000 110.0000  72.0455 260.8734      310
  3.4840   1.7420  21.0000 115.0000  67.4511 258.7762      311
  3.4840   1.7420  21.0000 120.0000  62.8913 256.5211      312
  3.4840   1.7420  21.0000 125.0000  58.3763 254.0610      313
  3.4840   1.7420  21.0000 130.0000  53.9194 251.3365      314
  3.4840   1.7420  21.0000 135.0000  49.5381 248.2716      315
  3.4840   1.7420  21.0000 140.0000  45.2561 244.7675      316
  3.4840   1.7420  21.0000 145.0000  41.1058 240.6943      317
  3.4840   1.7420  21.0000 150.0000  37.1330 235.8825      318
  3.4840   1.7420  21.0000 155.0000  33.4023 230.1143      319
  3.4840   1.7420  21.0000 160.0000  30.0053 223.1268      320
  3.4840   1.7420  21.0000 165.0000  27.0691 214.6450      321
  3.4840   1.7420  21.0000 170.0000  24.7589 204.4841      322
  3.4840   1.7420  21.0000 175.0000  23.2626 192.7428      323
  3.4840   1.7420  21.0000 180.0000  22.7420 180.0000      324
  3.4840   1.7420  21.0000 185.0000  23.2626 167.2572      325
  3.4840   1.7420  21.0000 190.0000  24.7589 155.5159      326
  3.4840   1.7420  21.0000 195.0000  27.0691 145.3550      327
  3.4840   1.7420  21.0000 200.0000  30.0053 136.8732      328
  3.4840   1.7420  21.0000 205.0000  33.4023 129.8857      329
  3.4840   1.7420  21.0000 210.0000  37.1330 124.1175      330
  3.4840   1.7420  21.0000 215.0000  41.1058 119.3057      331
  3.4840   1.7420  21.0000 220.0000  45.2561 115.2325      332
  3.4840   1.7420  21.0000 225.0000  49.5381 111.7284      333
  3.4840   1.7420  21.0000 230.0000  53.9194 108.6635      334
  3.4840   1.7420  21.0000 235.0000  58.3763 105.9390      335
  3.4840   1.7420  21.0000 240.0000  62.8913 103.4789      336
  3.4840   1.7420  21.0000 245.0000  67.4511 101.2238      337
  3.4840   1.7420  21.0000 250.0000  72.0455  99.1266      338
  3.4840   1.7420  21.0000 255.0000  76.6663  97.1487      339
  3.4840   1.7420  21.0000 260.0000  81.3067  95.2576      340
  3.4840   1.7420  21.0000 265.0000  85.9610  93.4253      341
  3.4840   1.7420  21.0000 270.0000  89.3758 268.3736      342
  3.4840   1.7420  21.0000 275.0000  84.7085 270.1634      343
  3.4840   1.7420  21.0000 280.0000  80.0416 271.9678      344
  3.4840   1.7420  21.0000 285.0000  75.3798 273.8120      345
  3.4840   1.7420  21.0000 290.0000  70.7282 275.7231      346
  3.4840   1.7420  21.0000 295.0000  66.0926 277.7324      347
  3.4840   1.7420  21.0000 300.0000  61.4798 279.8772      348
  3.4840   1.7420  21.0000 305.0000  56.8983 282.2034      349
  3.4840   1.7420  21.0000 310.0000  52.3591 284.7695      350
  3.4840   1.7420  21.0000 315.0000  47.8766 287.6518      351
  3.4840   1.7420  21.0000 320.0000  43.4706 290.9526      352
  3.4840   1.7420  21.0000 325.0000  39.1691 294.8111      353
  3.4840   1.7420  21.0000 330.0000  35.0127 299.4198      354
  3.4840   1.7420  21.0000 335.0000  31.0615 305.0435      355
  3.4840   1.7420  21.0000 340.0000  27.4060 312.0376      356
  3.4840   1.7420  21.0000 345.0000  24.1823 320.8371      357
  3.4840   1.7420  21.0000 350.0000  21.5860 331.8499      358
  3.4840   1.7420  21.0000 355.0000  19.8656 345.1458      359
  3.4840   1.7420  26.0000   0.0000  24.2580   0.0000      360
  3.4840   1.7420  26.0000   5.0000  24.7304  12.0190      361
  3.4840   1.7420  26.0000  10.0000  26.0963  23.2398      362
  3.4840   1.7420  26.0000  15.0000  28.2255  33.1614      363
  3.4840   1.7420  26.0000  20.0000  30.9601  41.6464      364
  3.4840   1.7420  26.0000  25.0000  34.1538  48.8008      365
  3.4840   1.7420  26.0000  30.0000  37.6886  54.8311      366
  3.4840   1.7420  26.0000  35.0000  41.4759  59.9548      367
  3.4840   1.7420  26.0000  40.0000  45.4506  64.3634      368
  3.4840   1.7420  26.0000  45.0000  49.5657  68.2127      369
  3.4840   1.7420  26.0000  50.0000  53.7867  71.6259      370
  3.4840   1.7420  26.0000  55.0000  58.0881  74.6994      371
  3.4840   1.7420  26.0000  60.0000  62.4505  77.5090      372
  3.4840   1.7420  26.0000  65.0000  66.8589  80.1152      373
  3.4840   1.7420  26.0000  70.0000  71.3014  82.5669      374
  3.4840   1.7420  26.0000  75.0000  75.7683  84.9049      375
  3.4840   1.7420  26.0000  80.0000  80.2513  87.1639      376
  3.4840   1.7420  26.0000  85.0000  84.7429  89.3748      377
  3.4840   1.7420  26.0000  90.0000  89.2365  91.5658      378
  3.4840   1.7420  26.0000  95.0000  86.2747 266.2358      379
  3.4840   1.7420  26.0000 100.0000  81.7973 264.0029      380
  3.4840   1.7420  26.0000 105.0000  77.3385 261.7069      381
  3.4840   1.7420  26.0000 110.0000  72.9062 259.3171      382
  3.4840   1.7420  26.0000 115.0000  68.5096 256.7984      383
  3.4840   1.7420  26.0000 120.0000  64.1598 254.1106      384
  3.4840   1.7420  26.0000 125.0000  59.8701 251.2055      385
  3.4840   1.7420  26.0000 130.0000  55.6574 248.0249      386
  3.4840   1.7420  26.0000 135.0000  51.5433 244.4975      387
  3.4840   1.7420  26.0000 140.0000  47.5558 240.5355      388
  3.4840   1.7420  26.0000 145.0000  43.7319 236.0312      389
  3.4840   1.7420  26.0000 150.0000  40.1203 230.8561      390
  3.4840   1.7420  26.0000 155.0000  36.7856 224.8637      391
  3.4840   1.7420  26.0000 160.0000  33.8114 217.9047      392
  3.4840   1.7420  26.0000 165.0000  31.3020 209.8632      393
  3.4840   1.7420  26.0000 170.0000  29.3778 200.7206      394
  3.4840   1.7420  26.0000 175.0000  28.1599 190.6374      395
  3.4840   1.7420  26.0000 180.0000  27.7420 180.0000      396
  3.4840   1.7420  26.0000 185.0000  28.1599 169.3626      397
  3.4840   1.7420  26.0000 190.0000  29.3778 159.2794      398
  3.4840   1.7420  26.0000 195.0000  31.3020 150.1368      399
  3.4840   1.7420  26.0000 200.0000  33.8114 142.0953      400
  3.4840   1.7420  26.0000 205.0000  36.7856 135.1363      401
  3.4840   1.7420  26.0000 210.0000  40.1203 129.1439      402
  3.4840   1.7420  26.0000 215.0000  43.7319 123.9688      403
  3.4840   1.7420  26.0000 220.0000  47.5558 119.4645      404
  3.4840   1.7420  26.0000 225.0000  51.5433 115.5025      405
  3.4840   1.7420  26.0000 230.0000  55.6574 111.9751      406
  3.4840   1.7420  26.0000 235.0000  59.8701 108.7945      407
  3.4840   1.7420  26.0000 240.0000  64.1598 105.8894      408
  3.4840   1.7420  26.0000 245.0000  68.5096 103.2016      409
  3.4840   1.7420  26.0000 250.0000  72.9062 100.6829      410
  3.4840   1.7420  26.0000 255.0000  77.3385  98.2931      411
  3.4840   1.7420  26.0000 260.0000  81.7973  95.9971      412
  3.4840   1.7420  26.0000 265.0000  86.2747  93.7642      413
  3.4840   1.7420  26.0000 270.0000  89.2365 268.4342      414
  3.4840   1.7420  26.0000 275.0000  84.7429 270.6252      415
  3.4840   1.7420  26.0000 280.0000  80.2513 272.8361      416
  3.4840   1.7420  26.0000 285.0000  75.7683 275.0951      417
  3.4840   1.7420  26.0000 290.0000  71.3014 277.4331      418
  3.4840   1.7420  26.0000 295.0000  66.8589 279.8848      419
  3.4840   1.7420  26.0000 300.0000  62.4505 282.4910      420
  3.4840   1.7420  26.0000 305.0000  58.0881 285.3006      421
  3.4840   1.7420  26.0000 310.0000  53.7867 288.3741      422
  3.4840   1.7420  26.0000 315.0000  49.5657 291.7873      423
  3.4840   1.7420  26.0000 320.0000  45.4506 295.6366      424
  3.4840   1.7420  26.0000 325.0000  41.4759 300.0452      425
  3.4840   1.7420  26.0000 330.0000  37.6886 305.1689      426
  3.4840   1.7420  26.0000 335.0000  34.1538 311.1992      427
  3.4840   1.7420  26.0000 340.0000  30.9601 318.3536      428
  3.4840   1.7420  26.0000 345.0000  28.2255 326.8386      429
  3.4840   1.7420  26.0000 350.0000  26.0963 336.7602      430
  3.4840   1.7420  26.0000 355.0000  24.7304 347.9810      431
  3.4840   1.7420  31.0000   0.0000  29.2580   0.0000      432
  3.4840   1.7420  31.0000   5.0000  29.6380  10.1463      433
  3.4840   1.7420  31.0000  10.0000  30.7494  19.8448      434
  3.4840   1.7420  31.0000  15.0000  32.5168  28.7677      435
  3.4840   1.7420  31.0000  20.0000  34.8392  36.7567      436
  3.4840   1.7420  31.0000  25.0000  37.6126  43.7992      437
  3.4840   1.7420  31.0000  30.0000  40.7432  49.9720      438
  3.4840   1.7420  31.0000  35.0000  44.1530  55.3904      439
  3.4840   1.7420  31.0000  40.0000  47.7798  60.1768      440
  3.4840   1.7420  31.0000  45.0000  51.5753  64.4442      441
  3.4840   1.7420  31.0000  50.0000  55.5019  68.2906      442
  3.4840   1.7420  31.0000  55.0000  59.5305  71.7987      443
  3.4840   1.7420  31.0000  60.0000  63.6379  75.0371      444
  3.4840   1.7420  31.0000  65.0000  67.8060  78.0633      445
  3.4840   1.7420  31.0000  70.0000  72.0197  80.9256      446
  3.4840   1.7420  31.0000  75.0000  76.2665  83.6652      447
  3.4840   1.7420  31.0000  80.0000  80.5357  86.3184      448
  3.4840   1.7420  31.0000  85.0000  84.8175  88.9177      449
  3.4840   1.7420  31.0000  90.0000  89.1029  91.4933      450
  3.4840   1.7420  31.0000  95.0000  86.6167 265.9258      451
  3.4840   1.7420  31.0000 100.0000  82.3501 263.3106      452
  3.4840   1.7420  31.0000 105.0000  78.1066 260.6310      453
  3.4840   1.7420  31.0000 110.0000  73.8963 257.8551      454
  3.4840   1.7420  31.0000 115.0000  69.7309 254.9476      455
  3.4840   1.7420  31.0000 120.0000  65.6236 251.8685      456
  3.4840   1.7420  31.0000 125.0000  61.5907 248.5721      457
  3.4840   1.7420  31.0000 130.0000  57.6517 245.0051      458
  3.4840   1.7420  31.0000 135.0000  53.8308 241.1055      459
  3.4840   1.7420  31.0000 140.0000  50.1583 236.8011      460
  3.4840   1.7420  31.0000 145.0000  46.6724 232.0101      461
  3.4840   1.7420  31.0000 150.0000  43.4205 226.6437      462
  3.4840   1.7420  31.0000 155.0000  40.4615 220.6129      463
  3.4840   1.7420  31.0000 160.0000  37.8663 213.8445      464
  3.4840   1.7420  31.0000 165.0000  35.7160 206.3053      465
  3.4840   1.7420  31.0000 170.0000  34.0961 198.0364      466
  3.4840   1.7420  31.0000 175.0000  33.0858 189.1827      467
  3.4840   1.7420  31.0000 180.0000  32.7420 180.0000      468
  3.4840   1.7420  31.0000 185.0000  33.0858 170.8173      469
  3.4840   1.7420  31.0000 190.0000  34.0961 161.9636      470
  3.4840   1.7420  31.0000 195.0000  35.7160 153.6947      471
  3.4840   1.7420  31.0000 200.0000  37.8663 146.1555      472
  3.4840   1.7420  31.0000 205.0000  40.4615 139.3871      473
  3.4840   1.7420  31.0000 210.0000  43.4205 133.3563      474
  3.4840   1.7420  31.0000 215.0000  46.6724 127.9899      475
  3.4840   1.7420  31.0000 220.0000  50.1583 123.1989      476
  3.4840   1.7420  31.0000 225.0000  53.8308 118.8945      477
  3.4840   1.7420  31.0000 230.0000  57.6517 114.9949      478
  3.4840   1.7420  31.0000 235.0000  61.5907 111.4279      479
  3.4840   1.7420  31.0000 240.0000  65.6236 108.1315      480
  3.4840   1.7420  31.0000 245.0000  69.7309 105.0524      481
  3.4840   1.7420  31.0000 250.0000  73.8963 102.1449      482
  3.4840   1.7420  31.0000 255.0000  78.1066  99.3690      483
  3.4840   1.7420  31.0000 260.0000  82.3501  96.6894      484
  3.4840   1.7420  31.0000 265.0000  86.6167  94.0742      485
  3.4840   1.7420  31.0000 270.0000  89.1029 268.5067      486
  3.4840   1.7420  31.0000 275.0000  84.8175 271.0823      487
  3.4840   1.7420  31.0000 280.0000  80.5357 273.6816      488
  3.4840   1.7420  31.0000 285.0000  76.2665 276.3348      489
  3.4840   1.7420  31.0000 290.0000  72.0197 279.0744      490
  3.4840   1.7420  31.0000 295.0000  67.8060 281.9367      491
  3.4840   1.7420  31.0000 300.0000  63.6379 284.9629      492
  3.4840   1.7420  31.0000 305.0000  59.5305 288.2013      493
  3.4840   1.7420  31.0000 310.0000  55.5019 291.7094      494
  3.4840   1.7420  31.0000 315.0000  51.5753 295.5558      495
  3.4840   1.7420  31.0000 320.0000  47.7798 299.8232      496
  3.4840   1.7420  31.0000 325.0000  44.1530 304.6096      497
  3.4840   1.7420  31.0000 330.0000  40.7432 310.0280      498
  3.4840   1.7420  31.0000 335.0000  37.6126 316.2008      499
  3.4840   1.7420  31.0000 340.0000  34.8392 323.2433      500
  3.4840   1.7420  31.0000 345.0000  32.5168 331.2323      501
  3.4840   1.7420  31.0000 350.0000  30.7494 340.1552      502
  3.4840   1.7420  31.0000 355.0000  29.6380 349.8537      503
  3.4840   1.7420  36.0000   0.0000  34.2580   0.0000      504
  3.4840   1.7420  36.0000   5.0000  34.5700   8.8316      505
  3.4840   1.7420  36.0000  10.0000  35.4891  17.3959      506
  3.4840   1.7420  36.0000  15.0000  36.9694  25.4784      507
  3.4840   1.7420  36.0000  20.0000  38.9455  32.9470      508
  3.4840   1.7420  36.0000  25.0000  41.3448  39.7519      509
  3.4840   1.7420  36.0000  30.0000  44.0961  45.9060      510
  3.4840   1.7420  36.0000  35.0000  47.1353  51.4610      511
  3.4840   1.7420  36.0000  40.0000  50.4074  56.4868      512
  3.4840   1.7420  36.0000  45.0000  53.8668  61.0579      513
  3.4840   1.7420  36.0000  50.0000  57.4759  65.2460      514
  3.4840   1.7420  36.0000  55.0000  61.2044  69.1164      515
  3.4840   1.7420  36.0000  60.0000  65.0271  72.7271      516
  3.4840   1.7420  36.0000  65.0000  68.9234  76.1289      517
  3.4840   1.7420  36.0000  70.0000  72.8760  79.3664      518
  3.4840   1.7420  36.0000  75.0000  76.8701  82.4791      519
  3.4840   1.7420  36.0000  80.0000  80.8925  85.5025      520
  3.4840   1.7420  36.0000  85.0000  84.9315  88.4691      521
  3.4840   1.7420  36.0000  90.0000  88.9762  91.4095      522
  3.4840   1.7420  36.0000  95.0000  86.9843 265.6469      523
  3.4840   1.7420  36.0000 100.0000  82.9606 262.6705      524
  3.4840   1.7420  36.0000 105.0000  78.9641 259.6313      525
  3.4840   1.7420  36.0000 110.0000  75.0068 256.4978      526
  3.4840   1.7420  36.0000 115.0000  71.1023 253.2358      527
  3.4840   1.7420  36.0000 120.0000  67.2660 249.8080      528
  3.4840   1.7420  36.0000 125.0000  63.5158 246.1733      529
  3.4840   1.7420  36.0000 130.0000  59.8730 242.2857      530
  3.4840   1.7420  36.0000 135.0000  56.3630 238.0944      531
  3.4840   1.7420  36.0000 140.0000  53.0162 233.5440      532
  3.4840   1.7420  36.0000 145.0000  49.8693 228.5767      533
  3.4840   1.7420  36.0000 150.0000  46.9656 223.1359      534
  3.4840   1.7420  36.0000 155.0000  44.3559 217.1733      535
  3.4840   1.7420  36.0000 160.0000  42.0973 210.6601      536
  3.4840   1.7420  36.0000 165.0000  40.2510 203.6018      537
  3.4840   1.7420  36.0000 170.0000  38.8775 196.0534      538
  3.4840   1.7420  36.0000 175.0000  38.0291 188.1293      539
  3.4840   1.7420  36.0000 180.0000  37.7420 180.0000      540
  3.4840   1.7420  36.0000 185.0000  38.0291 171.8707      541
  3.4840   1.7420  36.0000 190.0000  38.8775 163.9466      542
  3.4840   1.7420  36.0000 195.0000  40.2510 156.3982      543
  3.4840   1.7420  36.0000 200.0000  42.0973 149.3399      544
  3.4840   1.7420  36.0000 205.0000  44.3559 142.8267      545
  3.4840   1.7420  36.0000 210.0000  46.9656 136.8641      546
  3.4840   1.7420  36.0000 215.0000  49.8693 131.4233      547
  3.4840   1.7420  36.0000 220.0000  53.0162 126.4560      548
  3.4840   1.7420  36.0000 225.0000  56.3630 121.9056      549
  3.4840   1.7420  36.0000 230.0000  59.8730 117.7143      550
  3.4840   1.7420  36.0000 235.0000  63.5158 113.8267      551
  3.4840   1.7420  36.0000 240.0000  67.2660 110.1920      552
  3.4840   1.7420  36.0000 245.0000  71.1023 106.7642      553
  3.4840   1.7420  36.0000 250.0000  75.0068 103.5022      554
  3.4840   1.7420  36.0000 255.0000  78.9641 100.3687      555
  3.4840   1.7420  36.0000 260.0000  82.9606  97.3295      556
  3.4840   1.7420  36.0000 265.0000  86.9843  94.3531      557
  3.4840   1.7420  36.0000 270.0000  88.9762 268.5905      558
  3.4840   1.7420  36.0000 275.0000  84.9315 271.5309      559
  3.4840   1.7420  36.0000 280.0000  80.8925 274.4975      560
  3.4840   1.7420  36.0000 285.0000  76.8701 277.5209      561
  3.4840   1.7420  36.0000 290.0000  72.8760 280.6336      562
  3.4840   1.7420  36.0000 295.0000  68.9234 283.8711      563
  3.4840   1.7420  36.0000 300.0000  65.0271 287.2729      564
  3.4840   1.7420  36.0000 305.0000  61.2044 290.8836      565
  3.4840   1.7420  36.0000 310.0000  57.4759 294.7540      566
  3.4840   1.7420  36.0000 315.0000  53.8668 298.9421      567
  3.4840   1.7420  36.0000 320.0000  50.4074 303.5132      568
  3.4840   1.7420  36.0000 325.0000  47.1353 308.5390      569
  3.4840   1.7420  36.0000 330.0000  44.0961 314.0940      570
  3.4840   1.7420  36.0000 335.0000  41.3448 320.2481      571
  3.4840   1.7420  36.0000 340.0000  38.9455 327.0530      572
  3.4840   1.7420  36.0000 345.0000  36.9694 334.5216      573
  3.4840   1.7420  36.0000 350.0000  35.4891 342.6041      574
  3.4840   1.7420  36.0000 355.0000  34.5700 351.1684      575
  3.4840   1.7420  41.0000   0.0000  39.2580   0.0000      576
  3.4840   1.7420  41.0000   5.0000  39.5172   7.8689      577
  3.4840   1.7420  41.0000  10.0000  40.2844  15.5714      578
  3.4840   1.7420  41.0000  15.0000  41.5307  22.9658      579
  3.4840   1.7420  41.0000  20.0000  43.2132  29.9521      580
  3.4840   1.7420  41.0000  25.0000  45.2813  36.4759      581
  3.4840   1.7420  41.0000  30.0000  47.6824  42.5232      582
  3.4840   1.7420  41.0000  35.0000  50.3661  48.1101      583
  3.4840   1.7420  41.0000  40.0000  53.2863  53.2715      584
  3.4840   1.7420  41.0000  45.0000  56.4024  58.0524      585
  3.4840   1.7420  41.0000  50.0000  59.6794  62.5014      586
  3.4840   1.7420  41.0000  55.0000  63.0876  66.6667      587
  3.4840   1.7420  41.0000  60.0000  66.6015  70.5941      588
  3.4840   1.7420  41.0000  65.0000  70.1993  74.3259      589
  3.4840   1.7420  41.0000  70.0000  73.8621  77.9012      590
  3.4840   1.7420  41.0000  75.0000  77.5735  81.3556      591
  3.4840   1.7420  41.0000  80.0000  81.3188  84.7223      592
  3.4840   1.7420  41.0000  85.0000  85.0843  88.0323      593
  3.4840   1.7420  41.0000  90.0000  88.8572  91.3149      594
  3.4840   1.7420  41.0000  95.0000  87.3747 265.4011      595
  3.4840   1.7420  41.0000 100.0000  83.6242 262.0873      596
  3.4840   1.7420  41.0000 105.0000  79.9039 258.7147      597
  3.4840   1.7420  41.0000 110.0000  76.2278 255.2535      598
  3.4840   1.7420  41.0000 115.0000  72.6107 251.6725      599
  3.4840   1.7420  41.0000 120.0000  69.0694 247.9383      600
  3.4840   1.7420  41.0000 125.0000  65.6229 244.0155      601
  3.4840   1.7420  41.0000 130.0000  62.2930 239.8665      602
  3.4840   1.7420  41.0000 135.0000  59.1047 235.4518      603
  3.4840   1.7420  41.0000 140.0000  56.0872 230.7316      604
  3.4840   1.7420  41.0000 145.0000  53.2737 225.6675      605
  3.4840   1.7420  41.0000 150.0000  50.7021 220.2264      606
  3.4840   1.7420  41.0000 155.0000  48.4143 214.3859      607
  3.4840   1.7420  41.0000 160.0000  46.4550 208.1409      608
  3.4840   1.7420  41.0000 165.0000  44.8697 201.5117      609
  3.4840   1.7420  41.0000 170.0000  43.7009 194.5499      610
  3.4840   1.7420  41.0000 175.0000  42.9838 187.3410      611
  3.4840   1.7420  41.0000 180.0000  42.7420 180.0000      612
  3.4840   1.7420  41.0000 185.0000  42.9838 172.6590      613
  3.4840   1.7420  41.0000 190.0000  43.7009 165.4501      614
  3.4840   1.7420  41.0000 195.0000  44.8697 158.4883      615
  3.4840   1.7420  41.0000 200.0000  46.4550 151.8591      616
  3.4840   1.7420  41.0000 205.0000  48.4143 145.6141      617
  3.4840   1.7420  41.0000 210.0000  50.7021 139.7736      618
  3.4840   1.7420  41.0000 215.0000  53.2737 134.3325      619
  3.4840   1.7420  41.0000 220.0000  56.0872 129.2684      620
  3.4840   1.7420  41.0000 225.0000  59.1047 124.5482      621
  3.4840   1.7420  41.0000 230.0000  62.2930 120.1335      622
  3.4840   1.7420  41.0000 235.0000  65.6229 115.9845      623
  3.4840   1.7420  41.0000 240.0000  69.0694 112.0617      624
  3.4840   1.7420  41.0000 245.0000  72.6107 108.3275      625
  3.4840   1.7420  41.0000 250.0000  76.2278 104.7465      626
  3.4840   1.7420  41.0000 255.0000  79.9039 101.2853      627
  3.4840   1.7420  41.0000 260.0000  83.6242  97.9127      628
  3.4840   1.7420  41.0000 265.0000  87.3747  94.5989      629
  3.4840   1.7420  41.0000 270.0000  88.8572 268.6851      630
  3.4840   1.7420  41.0000 275.0000  85.0843 271.9677      631
  3.4840   1.7420  41.0000 280.0000  81.3188 275.2777      632
  3.4840   1.7420  41.0000 285.0000  77.5735 278.6444      633
  3.4840   1.7420  41.0000 290.0000  73.8621 282.0988      634
  3.4840   1.7420  41.0000 295.0000  70.1993 285.6741      635
  3.4840   1.7420  41.0000 300.0000  66.6015 289.4059      636
  3.4840   1.7420  41.0000 305.0000  63.0876 293.3333      637
  3.4840   1.7420  41.0000 310.0000  59.6794 297.4986      638
  3.4840   1.7420  41.0000 315.0000  56.4024 301.9476      639
  3.4840   1.7420  41.0000 320.0000  53.2863 306.7285      640
  3.4840   1.7420  41.0000 325.0000  50.3661 311.8899      641
  3.4840   1.7420  41.0000 330.0000  47.6824 317.4768      642
  3.4840   1.7420  41.0000 335.0000  45.2813 323.5241      643
  3.4840   1.7420  41.0000 340.0000  43.2132 330.0479      644
  3.4840   1.7420  41.0000 345.0000  41.5307 337.0342      645
  3.4840   1.7420  41.0000 350.0000  40.2844 344.4286      646
  3.4840   1.7420  41.0000 355.0000  39.5172 352.1311      647
  3.4840   1.7420  46.0000   0.0000  44.2580   0.0000      648
  3.4840   1.7420  46.0000   5.0000  44.4745   7.1430      649
  3.4840   1.7420  46.0000  10.0000  45.1174  14.1795      650
  3.4840   1.7420  46.0000  15.0000  46.1681  21.0155      651
  3.4840   1.7420  46.0000  20.0000  47.5978  27.5782      652
  3.4840   1.7420  46.0000  25.0000  49.3716  33.8203      653
  3.4840   1.7420  46.0000  30.0000  51.4512  39.7193      654
  3.4840   1.7420  46.0000  35.0000  53.7979  45.2737      655
  3.4840   1.7420  46.0000  40.0000  56.3746  50.4975      656
  3.4840   1.7420  46.0000  45.0000  59.1470  55.4152      657
  3.4840   1.7420  46.0000  50.0000  62.0839  60.0572      658
  3.4840   1.7420  46.0000  55.0000  65.1577  64.4570      659
  3.4840   1.7420  46.0000  60.0000  68.3438  68.6487      660
  3.4840   1.7420  46.0000  65.0000  71.6207  72.6657      661
  3.4840   1.7420  46.0000  70.0000  74.9688  76.5403      662
  3.4840   1.7420  46.0000  75.0000  78.3709  80.3033      663
  3.4840   1.7420  46.0000  80.0000  81.8111  83.9840      664
  3.4840   1.7420  46.0000  85.0000  85.2745  87.6106      665
  3.4840   1.7420  46.0000  90.0000  88.7470  91.2103      666
  3.4840   1.7420  46.0000  95.0000  87.7851 265.1904      667
  3.4840   1.7420  46.0000 100.0000  84.3355 261.5650      668
  3.4840   1.7420  46.0000 105.0000  80.9184 257.8870      669
  3.4840   1.7420  46.0000 110.0000  77.5487 254.1295      670
  3.4840   1.7420  46.0000 115.0000  74.2421 250.2648      671
  3.4840   1.7420  46.0000 120.0000  71.0162 246.2646      672
  3.4840   1.7420  46.0000 125.0000  67.8899 242.0998      673
  3.4840   1.7420  46.0000 130.0000  64.8845 237.7408      674
  3.4840   1.7420  46.0000 135.0000  62.0239 233.1588      675
  3.4840   1.7420  46.0000 140.0000  59.3344 228.3263      676
  3.4840   1.7420  46.0000 145.0000  56.8454 223.2197      677
  3.4840   1.7420  46.0000 150.0000  54.5884 217.8217      678
  3.4840   1.7420  46.0000 155.0000  52.5971 212.1246      679
  3.4840   1.7420  46.0000 160.0000  50.9059 206.1346      680
  3.4840   1.7420  46.0000 165.0000  49.5480 199.8750      681
  3.4840   1.7420  46.0000 170.0000  48.5534 193.3887      682
  3.4840   1.7420  46.0000 175.0000  47.9462 186.7377      683
  3.4840   1.7420  46.0000 180.0000  47.7420 180.0000      684
  3.4840   1.7420  46.0000 185.0000  47.9462 173.2623      685
  3.4840   1.7420  46.0000 190.0000  48.5534 166.6113      686
  3.4840   1.7420  46.0000 195.0000  49.5480 160.1250      687
  3.4840   1.7420  46.0000 200.0000  50.9059 153.8654      688
  3.4840   1.7420  46.0000 205.0000  52.5971 147.8754      689
  3.4840   1.7420  46.0000 210.0000  54.5884 142.1783      690
  3.4840   1.7420  46.0000 215.0000  56.8454 136.7803      691
  3.4840   1.7420  46.0000 220.0000  59.3344 131.6737      692
  3.4840   1.7420  46.0000 225.0000  62.0239 126.8412      693
  3.4840   1.7420  46.0000 230.0000  64.8845 122.2592      694
  3.4840   1.7420  46.0000 235.0000  67.8899 117.9002      695
  3.4840   1.7420  46.0000 240.0000  71.0162 113.7354      696
  3.4840   1.7420  46.0000 245.0000  74.2421 109.7352      697
  3.4840   1.7420  46.0000 250.0000  77.5487 105.8705      698
  3.4840   1.7420  46.0000 255.0000  80.9184 102.1130      699
  3.4840   1.7420  46.0000 260.0000  84.3355  98.4350      700
  3.4840   1.7420  46.0000 265.0000  87.7851  94.8096      701
  3.4840   1.7420  46.0000 270.0000  88.7470 268.7897      702
  3.4840   1.7420  46.0000 275.0000  85.2745 272.3894      703
  3.4840   1.7420  46.0000 280.0000  81.8111 276.0160      704
  3.4840   1.7420  46.0000 285.0000  78.3709 279.6967      705
  3.4840   1.7420  46.0000 290.0000  74.9688 283.4597      706
  3.4840   1.7420  46.0000 295.0000  71.6207 287.3343      707
  3.4840   1.7420  46.0000 300.0000  68.3438 291.3513      708
  3.4840   1.7420  46.0000 305.0000  65.1577 295.5430      709
  3.4840   1.7420  46.0000 310.0000  62.0839 299.9428      710
  3.4840   1.7420  46.0000 315.0000  59.1470 304.5848      711
  3.4840   1.7420  46.0000 320.0000  56.3746 309.5025      712
  3.4840   1.7420  46.0000 325.0000  53.7979 314.7263      713
  3.4840   1.7420  46.0000 330.0000  51.4512 320.2807      714
  3.4840   1.7420  46.0000 335.0000  49.3716 326.1797      715
  3.4840   1.7420  46.0000 340.0000  47.5978 332.4218      716
  3.4840   1.7420  46.0000 345.0000  46.1681 338.9845      717
  3.4840   1.7420  46.0000 350.0000  45.1174 345.8205      718
  3.4840   1.7420  46.0000 355.0000  44.4745 352.8570      719
  3.4840   1.7420  51.0000   0.0000  49.2580   0.0000      720
  3.4840   1.7420  51.0000   5.0000  49.4388   6.5845      721
  3.4840   1.7420  51.0000  10.0000  49.9768  13.1001      722
  3.4840   1.7420  51.0000  15.0000  50.8598  19.4841      723
  3.4840   1.7420  51.0000  20.0000  52.0685  25.6851      724
  3.4840   1.7420  51.0000  25.0000  53.5786  31.6657      725
  3.4840   1.7420  51.0000  30.0000  55.3627  37.4036      726
  3.4840   1.7420  51.0000  35.0000  57.3915  42.8898      727
  3.4840   1.7420  51.0000  40.0000  59.6362  48.1272      728
  3.4840   1.7420  51.0000  45.0000  62.0685  53.1272      729
  3.4840   1.7420  51.0000  50.0000  64.6620  57.9074      730
  3.4840   1.7420  51.0000  55.0000  67.3922  62.4896      731
  3.4840   1.7420  51.0000  60.0000  70.2365  66.8976      732
  3.4840   1.7420  51.0000  65.0000  73.1741  71.1567      733
  3.4840   1.7420  51.0000  70.0000  76.1863  75.2922      734
  3.4840   1.7420  51.0000  75.0000  79.2555  79.3294      735
  3.4840   1.7420  51.0000  80.0000  82.3654  83.2930      736
  3.4840   1.7420  51.0000  85.0000  85.5006  87.2074      737
  3.4840   1.7420  51.0000  90.0000  88.6463  91.0965      738
  3.4840   1.7420  51.0000  95.0000  88.2121 265.0162      739
  3.4840   1.7420  51.0000 100.0000  85.0892 261.1072      740
  3.4840   1.7420  51.0000 105.0000  81.9996 257.1534      741
  3.4840   1.7420  51.0000 110.0000  78.9587 253.1313      742
  3.4840   1.7420  51.0000 115.0000  75.9827 249.0178      743
  3.4840   1.7420  51.0000 120.0000  73.0887 244.7896      744
  3.4840   1.7420  51.0000 125.0000  70.2953 240.4239      745
  3.4840   1.7420  51.0000 130.0000  67.6225 235.8986      746
  3.4840   1.7420  51.0000 135.0000  65.0917 231.1933      747
  3.4840   1.7420  51.0000 140.0000  62.7264 226.2904      748
  3.4840   1.7420  51.0000 145.0000  60.5511 221.1762      749
  3.4840   1.7420  51.0000 150.0000  58.5918 215.8432      750
  3.4840   1.7420  51.0000 155.0000  56.8748 210.2914      751
  3.4840   1.7420  51.0000 160.0000  55.4260 204.5311      752
  3.4840   1.7420  51.0000 165.0000  54.2696 198.5834      753
  3.4840   1.7420  51.0000 170.0000  53.4268 192.4814      754
  3.4840   1.7420  51.0000 175.0000  52.9141 186.2694      755
  3.4840   1.7420  51.0000 180.0000  52.7420 180.0000      756
  3.4840   1.7420  51.0000 185.0000  52.9141 173.7306      757
  3.4840   1.7420  51.0000 190.0000  53.4268 167.5186      758
  3.4840   1.7420  51.0000 195.0000  54.2696 161.4166      759
  3.4840   1.7420  51.0000 200.0000  55.4260 155.4689      760
  3.4840   1.7420  51.0000 205.0000  56.8748 149.7086      761
  3.4840   1.7420  51.0000 210.0000  58.5918 144.1568      762
  3.4840   1.7420  51.0000 215.0000  60.5511 138.8238      763
  3.4840   1.7420  51.0000 220.0000  62.7264 133.7096      764
  3.4840   1.7420  51.0000 225.0000  65.0917 128.8067      765
  3.4840   1.7420  51.0000 230.0000  67.6225 124.1014      766
  3.4840   1.7420  51.0000 235.0000  70.2953 119.5761      767
  3.4840   1.7420  51.0000 240.0000  73.0887 115.2104      768
  3.4840   1.7420  51.0000 245.0000  75.9827 110.9822      769
  3.4840   1.7420  51.0000 250.0000  78.9587 106.8687      770
  3.4840   1.7420  51.0000 255.0000  81.9996 102.8466      771
  3.4840   1.7420  51.0000 260.0000  85.0892  98.8928      772
  3.4840   1.7420  51.0000 265.0000  88.2121  94.9838      773
  3.4840   1.7420  51.0000 270.0000  88.6463 268.9035      774
  3.4840   1.7420  51.0000 275.0000  85.5006 272.7926      775
  3.4840   1.7420  51.0000 280.0000  82.3654 276.7070      776
  3.4840   1.7420  51.0000 285.0000  79.2555 280.6706      777
  3.4840   1.7420  51.0000 290.0000  76.1863 284.7078      778
  3.4840   1.7420  51.0000 295.0000  73.1741 288.8433      779
  3.4840   1.7420  51.0000 300.0000  70.2365 293.1024      780
  3.4840   1.7420  51.0000 305.0000  67.3922 297.5104      781
  3.4840   1.7420  51.0000 310.0000  64.6620 302.0926      782
  3.4840   1.7420  51.0000 315.0000  62.0685 306.8728      783
  3.4840   1.7420  51.0000 320.0000  59.6362 311.8728      784
  3.4840   1.7420  51.0000 325.0000  57.3915 317.1102      785
  3.4840   1.7420  51.0000 330.0000  55.3627 322.5964      786
  3.4840   1.7420  51.0000 335.0000  53.5786 328.3343      787
  3.4840   1.7420  51.0000 340.0000  52.0685 334.3149      788
  3.4840   1.7420  51.0000 345.0000  50.8598 340.5159      789
  3.4840   1.7420  51.0000 350.0000  49.9768 346.8999      790
  3.4840   1.7420  51.0000 355.0000  49.4388 353.4155      791
  3.4840   1.7420  56.0000   0.0000  54.2580   0.0000      792
  3.4840   1.7420  56.0000   5.0000  54.4080   6.1498      793
  3.4840   1.7420  56.0000  10.0000  54.8552  12.2550      794
  3.4840   1.7420  56.0000  15.0000  55.5914  18.2742      795
  3.4840   1.7420  56.0000  20.0000  56.6036  24.1718      796
  3.4840   1.7420  56.0000  25.0000  57.8750  29.9202      797
  3.4840   1.7420  56.0000  30.0000  59.3859  35.5005      798
  3.4840   1.7420  56.0000  35.0000  61.1149  40.9023      799
  3.4840   1.7420  56.0000  40.0000  63.0399  46.1229      800
  3.4840   1.7420  56.0000  45.0000  65.1384  51.1664      801
  3.4840   1.7420  56.0000  50.0000  67.3887  56.0419      802
  3.4840   1.7420  56.0000  55.0000  69.7698  60.7626      803
  3.4840   1.7420  56.0000  60.0000  72.2617  65.3445      804
  3.4840   1.7420  56.0000  65.0000  74.8458  69.8054      805
  3.4840   1.7420  56.0000  70.0000  77.5042  74.1642      806
  3.4840   1.7420  56.0000  75.0000  80.2200  78.4405      807
  3.4840   1.7420  56.0000  80.0000  82.9775  82.6544      808
  3.4840   1.7420  56.0000  85.0000  85.7610  86.8256      809
  3.4840   1.7420  56.0000  90.0000  88.5559  90.9743      810
  3.4840   1.7420  56.0000  95.0000  88.6527 264.8798      811
  3.4840   1.7420  56.0000 100.0000  85.8794 260.7170      812
  3.4840   1.7420  56.0000 105.0000  83.1390 256.5180      813
  3.4840   1.7420  56.0000 110.0000  80.4467 252.2635      814
  3.4840   1.7420  56.0000 115.0000  77.8182 247.9348      815
  3.4840   1.7420  56.0000 120.0000  75.2699 243.5137      816
  3.4840   1.7420  56.0000 125.0000  72.8191 238.9832      817
  3.4840   1.7420  56.0000 130.0000  70.4837 234.3275      818
  3.4840   1.7420  56.0000 135.0000  68.2829 229.5329      819
  3.4840   1.7420  56.0000 140.0000  66.2362 224.5886      820
  3.4840   1.7420  56.0000 145.0000  64.3641 219.4874      821
  3.4840   1.7420  56.0000 150.0000  62.6871 214.2273      822
  3.4840   1.7420  56.0000 155.0000  61.2254 208.8116      823
  3.4840   1.7420  56.0000 160.0000  59.9984 203.2507      824
  3.4840   1.7420  56.0000 165.0000  59.0234 197.5617      825
  3.4840   1.7420  56.0000 170.0000  58.3155 191.7691      826
  3.4840   1.7420  56.0000 175.0000  57.8860 185.9035      827
  3.4840   1.7420  56.0000 180.0000  57.7420 180.0000      828
  3.4840   1.7420  56.0000 185.0000  57.8860 174.0965      829
  3.4840   1.7420  56.0000 190.0000  58.3155 168.2309      830
  3.4840   1.7420  56.0000 195.0000  59.0234 162.4383      831
  3.4840   1.7420  56.0000 200.0000  59.9984 156.7493      832
  3.4840   1.7420  56.0000 205.0000  61.2254 151.1884      833
  3.4840   1.7420  56.0000 210.0000  62.6871 145.7727      834
  3.4840   1.7420  56.0000 215.0000  64.3641 140.5126      835
  3.4840   1.7420  56.0000 220.0000  66.2362 135.4114      836
  3.4840   1.7420  56.0000 225.0000  68.2829 130.4671      837
  3.4840   1.7420  56.0000 230.0000  70.4837 125.6725      838
  3.4840   1.7420  56.0000 235.0000  72.8191 121.0168      839
  3.4840   1.7420  56.0000 240.0000  75.2699 116.4863      840
  3.4840   1.7420  56.0000 245.0000  77.8182 112.0652      841
  3.4840   1.7420  56.0000 250.0000  80.4467 107.7365      842
  3.4840   1.7420  56.0000 255.0000  83.1390 103.4820      843
  3.4840   1.7420  56.0000 260.0000  85.8794  99.2830      844
  3.4840   1.7420  56.0000 265.0000  88.6527  95.1202      845
  3.4840   1.7420  56.0000 270.0000  88.5559 269.0257      846
  3.4840   1.7420  56.0000 275.0000  85.7610 273.1744      847
  3.4840   1.7420  56.0000 280.0000  82.9775 277.3456      848
  3.4840   1.7420  56.0000 285.0000  80.2200 281.5595      849
  3.4840   1.7420  56.0000 290.0000  77.5042 285.8358      850
  3.4840   1.7420  56.0000 295.0000  74.8458 290.1946      851
  3.4840   1.7420  56.0000 300.0000  72.2617 294.6555      852
  3.4840   1.7420  56.0000 305.0000  69.7698 299.2374      853
  3.4840   1.7420  56.0000 310.0000  67.3887 303.9581      854
  3.4840   1.7420  56.0000 315.0000  65.1384 308.8336      855
  3.4840   1.7420  56.0000 320.0000  63.0399 313.8771      856
  3.4840   1.7420  56.0000 325.0000  61.1149 319.0977      857
  3.4840   1.7420  56.0000 330.0000  59.3859 324.4995      858
  3.4840   1.7420  56.0000 335.0000  57.8750 330.0798      859
  3.4840   1.7420  56.0000 340.0000  56.6036 335.8282      860
  3.4840   1.7420  56.0000 345.0000  55.5914 341.7258      861
  3.4840   1.7420  56.0000 350.0000  54.8552 347.7450      862
  3.4840   1.7420  56.0000 355.0000  54.4080 353.8502      863
  3.4840   1.7420  61.0000   0.0000  59.2580   0.0000      864
  3.4840   1.7420  61.0000   5.0000  59.3808   5.8100      865
  3.4840   1.7420  61.0000  10.0000  59.7475  11.5915      866
  3.4840   1.7420  61.0000  15.0000  60.3526  17.3176      867
  3.4840   1.7420  61.0000  20.0000  61.1872  22.9648      868
  3.4840   1.7420  61.0000  25.0000  62.2399  28.5135      869
  3.4840   1.7420  61.0000  30.0000  63.4966  33.9493      870
  3.4840   1.7420  61.0000  35.0000  64.9419  39.2628      871
  3.4840   1.7420  61.0000  40.0000  66.5592  44.4498      872
  3.4840   1.7420  61.0000  45.0000  68.3312  49.5104      873
  3.4840   1.7420  61.0000  50.0000  70.2405  54.4487      874
  3.4840   1.7420  61.0000  55.0000  72.2698  59.2721      875
  3.4840   1.7420  61.0000  60.0000  74.4024  63.9906      876
  3.4840   1.7420  61.0000  65.0000  76.6215  68.6160      877
  3.4840   1.7420  61.0000  70.0000  78.9115  73.1618      878
  3.4840   1.7420  61.0000  75.0000  81.2567  77.6424      879
  3.4840   1.7420  61.0000  80.0000  83.6423  82.0727      880
  3.4840   1.7420  61.0000  85.0000  86.0537  86.4683      881
  3.4840   1.7420  61.0000  90.0000  88.4765  90.8447      882
  3.4840   1.7420  61.0000  95.0000  89.1035 264.7822      883
  3.4840   1.7420  61.0000 100.0000  86.7002 260.3970      884
  3.4840   1.7420  61.0000 105.0000  84.3281 255.9843      885
  3.4840   1.7420  61.0000 110.0000  82.0013 251.5293      886
  3.4840   1.7420  61.0000 115.0000  79.7346 247.0177      887
  3.4840   1.7420  61.0000 120.0000  77.5431 242.4360      888
  3.4840   1.7420  61.0000 125.0000  75.4420 237.7721      889
  3.4840   1.7420  61.0000 130.0000  73.4472 233.0151      890
  3.4840   1.7420  61.0000 135.0000  71.5748 228.1565      891
  3.4840   1.7420  61.0000 140.0000  69.8410 223.1899      892
  3.4840   1.7420  61.0000 145.0000  68.2621 218.1121      893
  3.4840   1.7420  61.0000 150.0000  66.8540 212.9235      894
  3.4840   1.7420  61.0000 155.0000  65.6320 207.6284      895
  3.4840   1.7420  61.0000 160.0000  64.6102 202.2354      896
  3.4840   1.7420  61.0000 165.0000  63.8013 196.7573      897
  3.4840   1.7420  61.0000 170.0000  63.2155 191.2113      898
  3.4840   1.7420  61.0000 175.0000  62.8608 185.6179      899
  3.4840   1.7420  61.0000 180.0000  62.7420 180.0000      900
  3.4840   1.7420  61.0000 185.0000  62.8608 174.3821      901
  3.4840   1.7420  61.0000 190.0000  63.2155 168.7887      902
  3.4840   1.7420  61.0000 195.0000  63.8013 163.2427      903
  3.4840   1.7420  61.0000 200.0000  64.6102 157.7646      904
  3.4840   1.7420  61.0000 205.0000  65.6320 152.3716      905
  3.4840   1.7420  61.0000 210.0000  66.8540 147.0765      906
  3.4840   1.7420  61.0000 215.0000  68.2621 141.8879      907
  3.4840   1.7420  61.0000 220.0000  69.8410 136.8101      908
  3.4840   1.7420  61.0000 225.0000  71.5748 131.8435      909
  3.4840   1.7420  61.0000 230.0000  73.4472 126.9849      910
  3.4840   1.7420  61.0000 235.0000  75.4420 122.2279      911
  3.4840   1.7420  61.0000 240.0000  77.5431 117.5640      912
  3.4840   1.7420  61.0000 245.0000  79.7346 112.9823      913
  3.4840   1.7420  61.0000 250.0000  82.0013 108.4707      914
  3.4840   1.7420  61.0000 255.0000  84.3281 104.0157      915
  3.4840   1.7420  61.0000 260.0000  86.7002  99.6030      916
  3.4840   1.7420  61.0000 265.0000  89.1035  95.2178      917
  3.4840   1.7420  61.0000 270.0000  88.4765 269.1553      918
  3.4840   1.7420  61.0000 275.0000  86.0537 273.5317      919
  3.4840   1.7420  61.0000 280.0000  83.6423 277.9273      920
  3.4840   1.7420  61.0000 285.0000  81.2567 282.3576      921
  3.4840   1.7420  61.0000 290.0000  78.9115 286.8382      922
  3.4840   1.7420  61.0000 295.0000  76.6215 291.3840      923
  3.4840   1.7420  61.0000 300.0000  74.4024 296.0094      924
  3.4840   1.7420  61.0000 305.0000  72.2698 300.7279      925
  3.4840   1.7420  61.0000 310.0000  70.2405 305.5513      926
  3.4840   1.7420  61.0000 315.0000  68.3312 310.4896      927
  3.4840   1.7420  61.0000 320.0000  66.5592 315.5502      928
  3.4840   1.7420  61.0000 325.0000  64.9419 320.7372      929
  3.4840   1.7420  61.0000 330.0000  63.4966 326.0507      930
  3.4840   1.7420  61.0000 335.0000  62.2399 331.4865      931
  3.4840   1.7420  61.0000 340.0000  61.1872 337.0352      932
  3.4840   1.7420  61.0000 345.0000  60.3526 342.6824      933
  3.4840   1.7420  61.0000 350.0000  59.7475 348.4085      934
  3.4840   1.7420  61.0000 355.0000  59.3808 354.1900      935
  3.4840   1.7420  66.0000   0.0000  64.2580   0.0000      936
  3.4840   1.7420  66.0000   5.0000  64.3564   5.5453      937
  3.4840   1.7420  66.0000  10.0000  64.6502  11.0731      938
  3.4840   1.7420  66.0000  15.0000  65.1359  16.5665      939
  3.4840   1.7420  66.0000  20.0000  65.8076  22.0105      940
  3.4840   1.7420  66.0000  25.0000  66.6574  27.3922      941
  3.4840   1.7420  66.0000  30.0000  67.6755  32.7016      942
  3.4840   1.7420  66.0000  35.0000  68.8509  37.9313      943
  3.4840   1.7420  66.0000  40.0000  70.1715  43.0772      944
  3.4840   1.7420  66.0000  45.0000  71.6244  48.1380      945
  3.4840   1.7420  66.0000  50.0000  73.1962  53.1152      946
  3.4840   1.7420  66.0000  55.0000  74.8731  58.0123      947
  3.4840   1.7420  66.0000  60.0000  76.6414  62.8353      948
  3.4840   1.7420  66.0000  65.0000  78.4873  67.5915      949
  3.4840   1.7420  66.0000  70.0000  80.3971  72.2897      950
  3.4840   1.7420  66.0000  75.0000  82.3574  76.9397      951
  3.4840   1.7420  66.0000  80.0000  84.3548  81.5521      952
  3.4840   1.7420  66.0000  85.0000  86.3763  86.1380      953
  3.4840   1.7420  66.0000  90.0000  88.4086  90.7087      954
  3.4840   1.7420  66.0000  95.0000  89.5610 264.7241      955
  3.4840   1.7420  66.0000 100.0000  87.5455 260.1492      956
  3.4840   1.7420  66.0000 105.0000  85.5579 255.5552      957
  3.4840   1.7420  66.0000 110.0000  83.6111 250.9314      958
  3.4840   1.7420  66.0000 115.0000  81.7181 246.2677      959
  3.4840   1.7420  66.0000 120.0000  79.8920 241.5547      960
  3.4840   1.7420  66.0000 125.0000  78.1462 236.7843      961
  3.4840   1.7420  66.0000 130.0000  76.4936 231.9496      962
  3.4840   1.7420  66.0000 135.0000  74.9476 227.0453      963
  3.4840   1.7420  66.0000 140.0000  73.5210 222.0680      964
  3.4840   1.7420  66.0000 145.0000  72.2265 217.0166      965
  3.4840   1.7420  66.0000 150.0000  71.0762 211.8923      966
  3.4840   1.7420  66.0000 155.0000  70.0812 206.6989      967
  3.4840   1.7420  66.0000 160.0000  69.2519 201.4427      968
  3.4840   1.7420  66.0000 165.0000  68.5970 196.1326      969
  3.4840   1.7420  66.0000 170.0000  68.1239 190.7799      970
  3.4840   1.7420  66.0000 175.0000  67.8377 185.3975      971
  3.4840   1.7420  66.0000 180.0000  67.7420 180.0000      972
  3.4840   1.7420  66.0000 185.0000  67.8377 174.6025      973
  3.4840   1.7420  66.0000 190.0000  68.1239 169.2201      974
  3.4840   1.7420  66.0000 195.0000  68.5970 163.8674      975
  3.4840   1.7420  66.0000 200.0000  69.2519 158.5573      976
  3.4840   1.7420  66.0000 205.0000  70.0812 153.3011      977
  3.4840   1.7420  66.0000 210.0000  71.0762 148.1077      978
  3.4840   1.7420  66.0000 215.0000  72.2265 142.9834      979
  3.4840   1.7420  66.0000 220.0000  73.5210 137.9320      980
  3.4840   1.7420  66.0000 225.0000  74.9476 132.9547      981
  3.4840   1.7420  66.0000 230.0000  76.4936 128.0504      982
  3.4840   1.7420  66.0000 235.0000  78.1462 123.2157      983
  3.4840   1.7420  66.0000 240.0000  79.8920 118.4453      984
  3.4840   1.7420  66.0000 245.0000  81.7181 113.7323      985
  3.4840   1.7420  66.0000 250.0000  83.6111 109.0686      986
  3.4840   1.7420  66.0000 255.0000  85.5579 104.4448      987
  3.4840   1.7420  66.0000 260.0000  87.5455  99.8508      988
  3.4840   1.7420  66.0000 265.0000  89.5610  95.2759      989
  3.4840   1.7420  66.0000 270.0000  88.4086 269.2913      990
  3.4840   1.7420  66.0000 275.0000  86.3763 273.8620      991
  3.4840   1.7420  66.0000 280.0000  84.3548 278.4479      992
  3.4840   1.7420  66.0000 285.0000  82.3574 283.0603      993
  3.4840   1.7420  66.0000 290.0000  80.3971 287.7103      994
  3.4840   1.7420  66.0000 295.0000  78.4873 292.4085      995
  3.4840   1.7420  66.0000 300.0000  76.6414 297.1647      996
  3.4840   1.7420  66.0000 305.0000  74.8731 301.9877      997
  3.4840   1.7420  66.0000 310.0000  73.1962 306.8848      998
  3.4840   1.7420  66.0000 315.0000  71.6244 311.8620      999
  3.4840   1.7420  66.0000 320.0000  70.1715 316.9228     1000
  3.4840   1.7420  66.0000 325.0000  68.8509 322.0687     1001
  3.4840   1.7420  66.0000 330.0000  67.6755 327.2984     1002
  3.4840   1.7420  66.0000 335.0000  66.6574 332.6078     1003
  3.4840   1.7420  66.0000 340.0000  65.8076 337.9895     1004
  3.4840   1.7420  66.0000 345.0000  65.1359 343.4335     1005
  3.4840   1.7420  66.0000 350.0000  64.6502 348.9269     1006
  3.4840   1.7420  66.0000 355.0000  64.3564 354.4547     1007
  3.4840   1.7420  71.0000   0.0000  69.2580   0.0000     1008
  3.4840   1.7420  71.0000   5.0000  69.3338   5.3424     1009
  3.4840   1.7420  71.0000  10.0000  69.5606  10.6745     1010
  3.4840   1.7420  71.0000  15.0000  69.9358  15.9867     1011
  3.4840   1.7420  71.0000  20.0000  70.4557  21.2700     1012
  3.4840   1.7420  71.0000  25.0000  71.1149  26.5165     1013
  3.4840   1.7420  71.0000  30.0000  71.9069  31.7199     1014
  3.4840   1.7420  71.0000  35.0000  72.8239  36.8752     1015
  3.4840   1.7420  71.0000  40.0000  73.8575  41.9793     1016
  3.4840   1.7420  71.0000  45.0000  74.9983  47.0306     1017
  3.4840   1.7420  71.0000  50.0000  76.2364  52.0294     1018
  3.4840   1.7420  71.0000  55.0000  77.5613  56.9773     1019
  3.4840   1.7420  71.0000  60.0000  78.9625  61.8772     1020
  3.4840   1.7420  71.0000  65.0000  80.4290  66.7334     1021
  3.4840   1.7420  71.0000  70.0000  81.9497  71.5511     1022
  3.4840   1.7420  71.0000  75.0000  83.5136  76.3364     1023
  3.4840   1.7420  71.0000  80.0000  85.1095  81.0961     1024
  3.4840   1.7420  71.0000  85.0000  86.7264  85.8372     1025
  3.4840   1.7420  71.0000  90.0000  88.3529  90.5673     1026
  3.4840   1.7420  71.0000  95.0000  89.9782  95.2940     1027
  3.4840   1.7420  71.0000 100.0000  88.4090 259.9751     1028
  3.4840   1.7420  71.0000 105.0000  86.8195 255.2327     1029
  3.4840   1.7420  71.0000 110.0000  85.2645 250.4715     1030
  3.4840   1.7420  71.0000 115.0000  83.7547 245.6852     1031
  3.4840   1.7420  71.0000 120.0000  82.3012 240.8678     1032
  3.4840   1.7420  71.0000 125.0000  80.9144 236.0142     1033
  3.4840   1.7420  71.0000 130.0000  79.6051 231.1204     1034
  3.4840   1.7420  71.0000 135.0000  78.3834 226.1834     1035
  3.4840   1.7420  71.0000 140.0000  77.2592 221.2015     1036
  3.4840   1.7420  71.0000 145.0000  76.2419 216.1745     1037
  3.4840   1.7420  71.0000 150.0000  75.3403 211.1035     1038
  3.4840   1.7420  71.0000 155.0000  74.5626 205.9912     1039
  3.4840   1.7420  71.0000 160.0000  73.9158 200.8418     1040
  3.4840   1.7420  71.0000 165.0000  73.4061 195.6608     1041
  3.4840   1.7420  71.0000 170.0000  73.0384 190.4549     1042
  3.4840   1.7420  71.0000 175.0000  72.8163 185.2318     1043
  3.4840   1.7420  71.0000 180.0000  72.7420 180.0000     1044
  3.4840   1.7420  71.0000 185.0000  72.8163 174.7682     1045
  3.4840   1.7420  71.0000 190.0000  73.0384 169.5451     1046
  3.4840   1.7420  71.0000 195.0000  73.4061 164.3392     1047
  3.4840   1.7420  71.0000 200.0000  73.9158 159.1582     1048
  3.4840   1.7420  71.0000 205.0000  74.5626 154.0088     1049
  3.4840   1.7420  71.0000 210.0000  75.3403 148.8965     1050
  3.4840   1.7420  71.0000 215.0000  76.2419 143.8255     1051
  3.4840   1.7420  71.0000 220.0000  77.2592 138.7985     1052
  3.4840   1.7420  71.0000 225.0000  78.3834 133.8166     1053
  3.4840   1.7420  71.0000 230.0000  79.6051 128.8796     1054
  3.4840   1.7420  71.0000 235.0000  80.9144 123.9858     1055
  3.4840   1.7420  71.0000 240.0000  82.3012 119.1322     1056
  3.4840   1.7420  71.0000 245.0000  83.7547 114.3148     1057
  3.4840   1.7420  71.0000 250.0000  85.2645 109.5285     1058
  3.4840   1.7420  71.0000 255.0000  86.8195 104.7673     1059
  3.4840   1.7420  71.0000 260.0000  88.4090 100.0249     1060
  3.4840   1.7420  71.0000 265.0000  89.9782 264.7060     1061
  3.4840   1.7420  71.0000 270.0000  88.3529 269.4327     1062
  3.4840   1.7420  71.0000 275.0000  86.7264 274.1628     1063
  3.4840   1.7420  71.0000 280.0000  85.1095 278.9039     1064
  3.4840   1.7420  71.0000 285.0000  83.5136 283.6636     1065
  3.4840   1.7420  71.0000 290.0000  81.9497 288.4489     1066
  3.4840   1.7420  71.0000 295.0000  80.4290 293.2666     1067
  3.4840   1.7420  71.0000 300.0000  78.9625 298.1228     1068
  3.4840   1.7420  71.0000 305.0000  77.5613 303.0227     1069
  3.4840   1.7420  71.0000 310.0000  76.2364 307.9706     1070
  3.4840   1.7420  71.0000 315.0000  74.9983 312.9694     1071
  3.4840   1.7420  71.0000 320.0000  73.8575 318.0207     1072
  3.4840   1.7420  71.0000 325.0000  72.8239 323.1248     1073
  3.4840   1.7420  71.0000 330.0000  71.9069 328.2801     1074
  3.4840   1.7420  71.0000 335.0000  71.1149 333.4835     1075
  3.4840   1.7420  71.0000 340.0000  70.4557 338.7300     1076
  3.4840   1.7420  71.0000 345.0000  69.9358 344.0133     1077
  3.4840   1.7420  71.0000 350.0000  69.5606 349.3255     1078
  3.4840   1.7420  71.0000 355.0000  69.3338 354.6576     1079
  3.4840   1.7420  76.0000   0.0000  74.2580   0.0000     1080
  3.4840   1.7420  76.0000   5.0000  74.3128   5.1916     1081
  3.4840   1.7420  76.0000  10.0000  74.4766  10.3779     1082
  3.4840   1.7420  76.0000  15.0000  74.7479  15.5539     1083
  3.4840   1.7420  76.0000  20.0000  75.1243  20.7148     1084
  3.4840   1.7420  76.0000  25.0000  75.6023  25.8566     1085
  3.4840   1.7420  76.0000  30.0000  76.1778  30.9756     1086
  3.4840   1.7420  76.0000  35.0000  76.8456  36.0691     1087
  3.4840   1.7420  76.0000  40.0000  77.6001  41.1350     1088
  3.4840   1.7420  76.0000  45.0000  78.4349  46.1724     1089
  3.4840   1.7420  76.0000  50.0000  79.3430  51.1809     1090
  3.4840   1.7420  76.0000  55.0000  80.3173  56.1611     1091
  3.4840   1.7420  76.0000  60.0000  81.3498  61.1143     1092
  3.4840   1.7420  76.0000  65.0000  82.4328  66.0426     1093
  3.4840   1.7420  76.0000  70.0000  83.5579  70.9487     1094
  3.4840   1.7420  76.0000  75.0000  84.7167  75.8359     1095
  3.4840   1.7420  76.0000  80.0000  85.9007  80.7077     1096
  3.4840   1.7420  76.0000  85.0000  87.1013  85.5682     1097
  3.4840   1.7420  76.0000  90.0000  88.3098  90.4216     1098
  3.4840   1.7420  76.0000  95.0000  89.5175  95.2721     1099
  3.4840   1.7420  76.0000 100.0000  89.2841 259.8759     1100
  3.4840   1.7420  76.0000 105.0000  88.1038 255.0183     1101
  3.4840   1.7420  76.0000 110.0000  86.9500 250.1510     1102
  3.4840   1.7420  76.0000 115.0000  85.8311 245.2704     1103
  3.4840   1.7420  76.0000 120.0000  84.7553 240.3733     1104
  3.4840   1.7420  76.0000 125.0000  83.7308 235.4569     1105
  3.4840   1.7420  76.0000 130.0000  82.7652 230.5190     1106
  3.4840   1.7420  76.0000 135.0000  81.8659 225.5582     1107
  3.4840   1.7420  76.0000 140.0000  81.0402 220.5738     1108
  3.4840   1.7420  76.0000 145.0000  80.2945 215.5657     1109
  3.4840   1.7420  76.0000 150.0000  79.6350 210.5347     1110
  3.4840   1.7420  76.0000 155.0000  79.0672 205.4823     1111
  3.4840   1.7420  76.0000 160.0000  78.5957 200.4107     1112
  3.4840   1.7420  76.0000 165.0000  78.2247 195.3230     1113
  3.4840   1.7420  76.0000 170.0000  77.9573 190.2226     1114
  3.4840   1.7420  76.0000 175.0000  77.7959 185.1135     1115
  3.4840   1.7420  76.0000 180.0000  77.7420 180.0000     1116
  3.4840   1.7420  76.0000 185.0000  77.7959 174.8865     1117
  3.4840   1.7420  76.0000 190.0000  77.9573 169.7774     1118
  3.4840   1.7420  76.0000 195.0000  78.2247 164.6770     1119
  3.4840   1.7420  76.0000 200.0000  78.5957 159.5893     1120
  3.4840   1.7420  76.0000 205.0000  79.0672 154.5177     1121
  3.4840   1.7420  76.0000 210.0000  79.6350 149.4653     1122
  3.4840   1.7420  76.0000 215.0000  80.2945 144.4343     1123
  3.4840   1.7420  76.0000 220.0000  81.0402 139.4262     1124
  3.4840   1.7420  76.0000 225.0000  81.8659 134.4418     1125
  3.4840   1.7420  76.0000 230.0000  82.7652 129.4810     1126
  3.4840   1.7420  76.0000 235.0000  83.7308 124.5431     1127
  3.4840   1.7420  76.0000 240.0000  84.7553 119.6267     1128
  3.4840   1.7420  76.0000 245.0000  85.8311 114.7296     1129
  3.4840   1.7420  76.0000 250.0000  86.9500 109.8490     1130
  3.4840   1.7420  76.0000 255.0000  88.1038 104.9817     1131
  3.4840   1.7420  76.0000 260.0000  89.2841 100.1241     1132
  3.4840   1.7420  76.0000 265.0000  89.5175 264.7279     1133
  3.4840   1.7420  76.0000 270.0000  88.3098 269.5784     1134
  3.4840   1.7420  76.0000 275.0000  87.1013 274.4318     1135
  3.4840   1.7420  76.0000 280.0000  85.9007 279.2923     1136
  3.4840   1.7420  76.0000 285.0000  84.7167 284.1641     1137
  3.4840   1.7420  76.0000 290.0000  83.5579 289.0513     1138
  3.4840   1.7420  76.0000 295.0000  82.4328 293.9574     1139
  3.4840   1.7420  76.0000 300.0000  81.3498 298.8857     1140
  3.4840   1.7420  76.0000 305.0000  80.3173 303.8389     1141
  3.4840   1.7420  76.0000 310.0000  79.3430 308.8191     1142
  3.4840   1.7420  76.0000 315.0000  78.4349 313.8276     1143
  3.4840   1.7420  76.0000 320.0000  77.6001 318.8650     1144
  3.4840   1.7420  76.0000 325.0000  76.8456 323.9309     1145
  3.4840   1.7420  76.0000 330.0000  76.1778 329.0244     1146
  3.4840   1.7420  76.0000 335.0000  75.6023 334.1434     1147
  3.4840   1.7420  76.0000 340.0000  75.1243 339.2852     1148
  3.4840   1.7420  76.0000 345.0000  74.7479 344.4461     1149
  3.4840   1.7420  76.0000 350.0000  74.4766 349.6221     1150
  3.4840   1.7420  76.0000 355.0000  74.3128 354.8084     1151
  3.4840   1.7420  81.0000   0.0000  79.2580   0.0000     1152
  3.4840   1.7420  81.0000   5.0000  79.2927   5.0865     1153
  3.4840   1.7420  81.0000  10.0000  79.3965  10.1708     1154
  3.4840   1.7420  81.0000  15.0000  79.5686  15.2509     1155
  3.4840   1.7420  81.0000  20.0000  79.8074  20.3249     1156
  3.4840   1.7420  81.0000  25.0000  80.1112  25.3910     1157
  3.4840   1.7420  81.0000  30.0000  80.4773  30.4477     1158
  3.4840   1.7420  81.0000  35.0000  80.9028  35.4938     1159
  3.4840   1.7420  81.0000  40.0000  81.3844  40.5283     1160
  3.4840   1.7420  81.0000  45.0000  81.9180  45.5507     1161
  3.4840   1.7420  81.0000  50.0000  82.4996  50.5607     1162
  3.4840   1.7420  81.0000  55.0000  83.1246  55.5585     1163
  3.4840   1.7420  81.0000  60.0000  83.7881  60.5445     1164
  3.4840   1.7420  81.0000  65.0000  84.4850  65.5194     1165
  3.4840   1.7420  81.0000  70.0000  85.2100  70.4843     1166
  3.4840   1.7420  81.0000  75.0000  85.9576  75.4406     1167
  3.4840   1.7420  81.0000  80.0000  86.7222  80.3895     1168
  3.4840   1.7420  81.0000  85.0000  87.4981  85.3330     1169
  3.4840   1.7420  81.0000  90.0000  88.2795  90.2726     1170
  3.4840   1.7420  81.0000  95.0000  89.0605  95.2102     1171
  3.4840   1.7420  81.0000 100.0000  89.8354 100.1478     1172
  3.4840   1.7420  81.0000 105.0000  89.4015 254.9131     1173
  3.4840   1.7420  81.0000 110.0000  88.6560 249.9706     1174
  3.4840   1.7420  81.0000 115.0000  87.9336 245.0231     1175
  3.4840   1.7420  81.0000 120.0000  87.2398 240.0694     1176
  3.4840   1.7420  81.0000 125.0000  86.5796 235.1083     1177
  3.4840   1.7420  81.0000 130.0000  85.9583 230.1388     1178
  3.4840   1.7420  81.0000 135.0000  85.3804 225.1604     1179
  3.4840   1.7420  81.0000 140.0000  84.8504 220.1727     1180
  3.4840   1.7420  81.0000 145.0000  84.3725 215.1758     1181
  3.4840   1.7420  81.0000 150.0000  83.9504 210.1700     1182
  3.4840   1.7420  81.0000 155.0000  83.5874 205.1559     1183
  3.4840   1.7420  81.0000 160.0000  83.2863 200.1343     1184
  3.4840   1.7420  81.0000 165.0000  83.0496 195.1065     1185
  3.4840   1.7420  81.0000 170.0000  82.8792 190.0738     1186
  3.4840   1.7420  81.0000 175.0000  82.7764 185.0378     1187
  3.4840   1.7420  81.0000 180.0000  82.7420 180.0000     1188
  3.4840   1.7420  81.0000 185.0000  82.7764 174.9622     1189
  3.4840   1.7420  81.0000 190.0000  82.8792 169.9262     1190
  3.4840   1.7420  81.0000 195.0000  83.0496 164.8935     1191
  3.4840   1.7420  81.0000 200.0000  83.2863 159.8657     1192
  3.4840   1.7420  81.0000 205.0000  83.5874 154.8441     1193
  3.4840   1.7420  81.0000 210.0000  83.9504 149.8300     1194
  3.4840   1.7420  81.0000 215.0000  84.3725 144.8242     1195
  3.4840   1.7420  81.0000 220.0000  84.8504 139.8273     1196
  3.4840   1.7420  81.0000 225.0000  85.3804 134.8396     1197
  3.4840   1.7420  81.0000 230.0000  85.9583 129.8612     1198
  3.4840   1.7420  81.0000 235.0000  86.5796 124.8917     1199
  3.4840   1.7420  81.0000 240.0000  87.2398 119.9306     1200
  3.4840   1.7420  81.0000 245.0000  87.9336 114.9769     1201
  3.4840   1.7420  81.0000 250.0000  88.6560 110.0294     1202
  3.4840   1.7420  81.0000 255.0000  89.4015 105.0869     1203
  3.4840   1.7420  81.0000 260.0000  89.8354 259.8522     1204
  3.4840   1.7420  81.0000 265.0000  89.0605 264.7898     1205
  3.4840   1.7420  81.0000 270.0000  88.2795 269.7274     1206
  3.4840   1.7420  81.0000 275.0000  87.4981 274.6670     1207
  3.4840   1.7420  81.0000 280.0000  86.7222 279.6105     1208
  3.4840   1.7420  81.0000 285.0000  85.9576 284.5594     1209
  3.4840   1.7420  81.0000 290.0000  85.2100 289.5157     1210
  3.4840   1.7420  81.0000 295.0000  84.4850 294.4806     1211
  3.4840   1.7420  81.0000 300.0000  83.7881 299.4555     1212
  3.4840   1.7420  81.0000 305.0000  83.1246 304.4415     1213
  3.4840   1.7420  81.0000 310.0000  82.4996 309.4393     1214
  3.4840   1.7420  81.0000 315.0000  81.9180 314.4493     1215
  3.4840   1.7420  81.0000 320.0000  81.3844 319.4717     1216
  3.4840   1.7420  81.0000 325.0000  80.9028 324.5062     1217
  3.4840   1.7420  81.0000 330.0000  80.4773 329.5523     1218
  3.4840   1.7420  81.0000 335.0000  80.1112 334.6090     1219
  3.4840   1.7420  81.0000 340.0000  79.8074 339.6751     1220
  3.4840   1.7420  81.0000 345.0000  79.5686 344.7491     1221
  3.4840   1.7420  81.0000 350.0000  79.3965 349.8292     1222
  3.4840   1.7420  81.0000 355.0000  79.2927 354.9135     1223
  3.4840   1.7420  86.0000   0.0000  84.2580   0.0000     1224
  3.4840   1.7420  86.0000   5.0000  84.2733   5.0228     1225
  3.4840   1.7420  86.0000  10.0000  84.3190  10.0452     1226
  3.4840   1.7420  86.0000  15.0000  84.3948  15.0666     1227
  3.4840   1.7420  86.0000  20.0000  84.5001  20.0868     1228
  3.4840   1.7420  86.0000  25.0000  84.6341  25.1052     1229
  3.4840   1.7420  86.0000  30.0000  84.7957  30.1217     1230
  3.4840   1.7420  86.0000  35.0000  84.9837  35.1358     1231
  3.4840   1.7420  86.0000  40.0000  85.1966  40.1473     1232
  3.4840   1.7420  86.0000  45.0000  85.4329  45.1562     1233
  3.4840   1.7420  86.0000  50.0000  85.6906  50.1622     1234
  3.4840   1.7420  86.0000  55.0000  85.9678  55.1655     1235
  3.4840   1.7420  86.0000  60.0000  86.2624  60.1660     1236
  3.4840   1.7420  86.0000  65.0000  86.5721  65.1638     1237
  3.4840   1.7420  86.0000  70.0000  86.8947  70.1592     1238
  3.4840   1.7420  86.0000  75.0000  87.2275  75.1524     1239
  3.4840   1.7420  86.0000  80.0000  87.5681  80.1436     1240
  3.4840   1.7420  86.0000  85.0000  87.9139  85.1332     1241
  3.4840   1.7420  86.0000  90.0000  88.2622  90.1216     1242
  3.4840   1.7420  86.0000  95.0000  88.6106  95.1090     1243
  3.4840   1.7420  86.0000 100.0000  88.9562 100.0958     1244
  3.4840   1.7420  86.0000 105.0000  89.2965 105.0825     1245
  3.4840   1.7420  86.0000 110.0000  89.6288 110.0693     1246
  3.4840   1.7420  86.0000 115.0000  89.9508 115.0567     1247
  3.4840   1.7420  86.0000 120.0000  89.7400 239.9552     1248
  3.4840   1.7420  86.0000 125.0000  89.4461 234.9660     1249
  3.4840   1.7420  86.0000 130.0000  89.1696 229.9756     1250
  3.4840   1.7420  86.0000 135.0000  88.9126 224.9838     1251
  3.4840   1.7420  86.0000 140.0000  88.6771 219.9906     1252
  3.4840   1.7420  86.0000 145.0000  88.4649 214.9959     1253
  3.4840   1.7420  86.0000 150.0000  88.2775 209.9997     1254
  3.4840   1.7420  86.0000 155.0000  88.1165 205.0021     1255
  3.4840   1.7420  86.0000 160.0000  87.9831 200.0033     1256
  3.4840   1.7420  86.0000 165.0000  87.8782 195.0034     1257
  3.4840   1.7420  86.0000 170.0000  87.8027 190.0028     1258
  3.4840   1.7420  86.0000 175.0000  87.7572 185.0015     1259
  3.4840   1.7420  86.0000 180.0000  87.7420 180.0000     1260
  3.4840   1.7420  86.0000 185.0000  87.7572 174.9985     1261
  3.4840   1.7420  86.0000 190.0000  87.8027 169.9972     1262
  3.4840   1.7420  86.0000 195.0000  87.8782 164.9966     1263
  3.4840   1.7420  86.0000 200.0000  87.9831 159.9967     1264
  3.4840   1.7420  86.0000 205.0000  88.1165 154.9979     1265
  3.4840   1.7420  86.0000 210.0000  88.2775 150.0003     1266
  3.4840   1.7420  86.0000 215.0000  88.4649 145.0041     1267
  3.4840   1.7420  86.0000 220.0000  88.6771 140.0094     1268
  3.4840   1.7420  86.0000 225.0000  88.9126 135.0162     1269
  3.4840   1.7420  86.0000 230.0000  89.1696 130.0244     1270
  3.4840   1.7420  86.0000 235.0000  89.4461 125.0340     1271
  3.4840   1.7420  86.0000 240.0000  89.7400 120.0448     1272
  3.4840   1.7420  86.0000 245.0000  89.9508 244.9433     1273
  3.4840   1.7420  86.0000 250.0000  89.6288 249.9307     1274
  3.4840   1.7420  86.0000 255.0000  89.2965 254.9175     1275
  3.4840   1.7420  86.0000 260.0000  88.9562 259.9042     1276
  3.4840   1.7420  86.0000 265.0000  88.6106 264.8910     1277
  3.4840   1.7420  86.0000 270.0000  88.2622 269.8784     1278
  3.4840   1.7420  86.0000 275.0000  87.9139 274.8668     1279
  3.4840   1.7420  86.0000 280.0000  87.5681 279.8564     1280
  3.4840   1.7420  86.0000 285.0000  87.2275 284.8476     1281
  3.4840   1.7420  86.0000 290.0000  86.8947 289.8408     1282
  3.4840   1.7420  86.0000 295.0000  86.5721 294.8362     1283
  3.4840   1.7420  86.0000 300.0000  86.2624 299.8340     1284
  3.4840   1.7420  86.0000 305.0000  85.9678 304.8345     1285
  3.4840   1.7420  86.0000 310.0000  85.6906 309.8378     1286
  3.4840   1.7420  86.0000 315.0000  85.4329 314.8438     1287
  3.4840   1.7420  86.0000 320.0000  85.1966 319.8527     1288
  3.4840   1.7420  86.0000 325.0000  84.9837 324.8642     1289
  3.4840   1.7420  86.0000 330.0000  84.7957 329.8783     1290
  3.4840   1.7420  86.0000 335.0000  84.6341 334.8948     1291
  3.4840   1.7420  86.0000 340.0000  84.5001 339.9132     1292
  3.4840   1.7420  86.0000 345.0000  84.3948 344.9334     1293
  3.4840   1.7420  86.0000 350.0000  84.3190 349.9548     1294
  3.4840   1.7420  86.0000 355.0000  84.2733 354.9772     1295
